Temperature (K)	Pressure (MPa)	Density (l, kg/m3)	Volume (l, m3/kg)	Internal Energy (l, kJ/mol)	Enthalpy (l, kJ/mol)	Entropy (l, J/mol*K)	Cv (l, J/mol*K)	Cp (l, J/mol*K)	Sound Spd. (l, m/s)	Joule-Thomson (l, K/MPa)	Viscosity (l, uPa*s)	Therm. Cond. (l, W/m*K)	Surf. Tension (l, N/m)	Density (v, kg/m3)	Volume (v, m3/kg)	Internal Energy (v, kJ/mol)	Enthalpy (v, kJ/mol)	Entropy (v, J/mol*K)	Cv (v, J/mol*K)	Cp (v, J/mol*K)	Sound Spd. (v, m/s)	Joule-Thomson (v, K/MPa)	Viscosity (v, uPa*s)	Therm. Cond. (v, W/m*K)
180.00	1.7416e-06	759.77	0.0013162	-29.702	-29.702	-116.02	119.44	162.12	1626.3	-0.54996	2235.0	0.15564	0.031698	0.00010028	9971.9	6.7793	8.2759	94.966	96.248	104.56	137.36	363.60	3.2844	0.0053651
185.00	3.4489e-06	755.27	0.0013240	-28.889	-28.889	-111.57	120.65	163.17	1597.7	-0.54547	1926.1	0.15587	0.031086	0.00019323	5175.2	7.2643	8.8025	92.171	97.782	106.10	139.16	326.21	3.6698	0.0056178
190.00	6.5568e-06	750.80	0.0013319	-28.070	-28.070	-107.20	121.83	164.22	1569.8	-0.54091	1677.3	0.15582	0.030477	0.00035768	2795.8	7.7569	9.3366	89.678	99.292	107.61	140.95	293.64	3.9348	0.0058750
195.00	1.2006e-05	746.34	0.0013399	-27.247	-27.247	-102.92	122.99	165.27	1542.5	-0.53626	1474.2	0.15551	0.029869	0.00063816	1567.0	8.2570	9.8783	87.463	100.79	109.10	142.71	265.13	4.1334	0.0061371
200.00	2.1237e-05	741.90	0.0013479	-26.418	-26.418	-98.723	124.13	166.32	1515.7	-0.53148	1306.4	0.15497	0.029264	0.0011006	908.56	8.7645	10.427	85.501	102.27	110.59	144.44	240.08	4.2946	0.0064043
205.00	3.6386e-05	737.47	0.0013560	-25.583	-25.583	-94.603	125.28	167.40	1489.4	-0.52655	1166.3	0.15425	0.028662	0.0018399	543.52	9.2792	10.984	83.771	103.75	112.07	146.15	217.98	4.4343	0.0066770
210.00	6.0531e-05	733.06	0.0013641	-24.744	-24.744	-90.556	126.42	168.50	1463.6	-0.52146	1048.0	0.15336	0.028062	0.0029880	334.67	9.8013	11.547	82.256	105.23	113.56	147.84	198.42	4.5617	0.0069555
215.00	9.7984e-05	728.66	0.0013724	-23.898	-23.898	-86.578	127.57	169.62	1438.2	-0.51619	947.33	0.15232	0.027464	0.0047248	211.65	10.331	12.118	80.938	106.73	115.05	149.50	181.05	4.6818	0.0072401
220.00	0.00015465	724.26	0.0013807	-23.047	-23.047	-82.666	128.74	170.77	1413.1	-0.51072	860.89	0.15116	0.026869	0.0072884	137.20	10.867	12.696	79.802	108.23	116.56	151.14	165.57	4.7978	0.0075310
225.00	0.00023840	719.87	0.0013891	-22.190	-22.190	-78.815	129.92	171.96	1388.4	-0.50504	786.13	0.14989	0.026277	0.010988	91.011	11.411	13.281	78.835	109.75	118.09	152.75	151.75	4.9114	0.0078286
230.00	0.00035955	715.47	0.0013977	-21.328	-21.328	-75.022	131.13	173.19	1364.0	-0.49914	721.01	0.14853	0.025687	0.016215	61.673	11.962	13.873	78.024	111.29	119.64	154.34	139.37	5.0238	0.0081332
235.00	0.00053131	711.08	0.0014063	-20.459	-20.459	-71.284	132.35	174.45	1339.9	-0.49302	663.93	0.14709	0.025100	0.023458	42.630	12.520	14.472	77.358	112.85	121.22	155.90	128.25	5.1356	0.0084450
240.00	0.00077035	706.69	0.0014150	-19.583	-19.583	-67.597	133.61	175.75	1316.2	-0.48667	613.59	0.14559	0.024516	0.033314	30.017	13.086	15.079	76.827	114.44	122.82	157.43	118.24	5.2472	0.0087644
245.00	0.0010972	702.29	0.0014239	-18.701	-18.701	-63.960	134.89	177.10	1292.6	-0.48008	568.96	0.14403	0.023935	0.046502	21.504	13.659	15.692	76.421	116.05	124.46	158.93	109.22	5.3590	0.0090914
250.00	0.0015371	697.89	0.0014329	-17.812	-17.812	-60.368	136.19	178.49	1269.4	-0.47325	529.19	0.14243	0.023357	0.063875	15.655	14.239	16.313	76.132	117.69	126.13	160.40	101.07	5.4709	0.0094265
255.00	0.0021200	693.47	0.0014420	-16.916	-16.916	-56.819	137.53	179.92	1246.3	-0.46617	493.58	0.14079	0.022781	0.086429	11.570	14.827	16.941	75.951	119.36	127.83	161.83	93.691	5.5832	0.0097697
260.00	0.0028817	689.05	0.0014513	-16.013	-16.012	-53.311	138.90	181.40	1223.5	-0.45884	461.56	0.13912	0.022209	0.11531	8.6720	15.422	17.575	75.873	121.07	129.57	163.23	87.001	5.6959	0.010121
265.00	0.0038639	684.61	0.0014607	-15.102	-15.102	-49.842	140.29	182.92	1200.9	-0.45124	432.66	0.13743	0.021640	0.15184	6.5859	16.024	18.217	75.888	122.80	131.35	164.59	80.927	5.8091	0.010482
270.00	0.0051148	680.16	0.0014703	-14.184	-14.183	-46.408	141.72	184.48	1178.5	-0.44339	406.45	0.13573	0.021074	0.19749	5.0636	16.633	18.865	75.993	124.57	133.17	165.91	75.403	5.9228	0.010851
275.00	0.0066894	675.68	0.0014800	-13.257	-13.256	-43.009	143.17	186.09	1156.3	-0.43527	382.62	0.13402	0.020511	0.25392	3.9383	17.250	19.520	76.179	126.36	135.02	167.18	70.374	6.0369	0.011228
280.00	0.0086500	671.19	0.0014899	-12.323	-12.322	-39.641	144.65	187.74	1134.2	-0.42687	360.87	0.13230	0.019951	0.32295	3.0964	17.874	20.182	76.444	128.19	136.92	168.41	65.789	6.1516	0.011616
285.00	0.011066	666.68	0.0015000	-11.380	-11.379	-36.304	146.16	189.43	1112.3	-0.41819	340.96	0.13059	0.019395	0.40662	2.4593	18.505	20.850	76.780	130.05	138.86	169.59	61.606	6.2669	0.012012
290.00	0.014016	662.14	0.0015103	-10.429	-10.427	-32.995	147.70	191.16	1090.6	-0.40921	322.68	0.12888	0.018842	0.50710	1.9720	19.143	21.525	77.184	131.93	140.84	170.71	57.783	6.3827	0.012418
295.00	0.017585	657.58	0.0015207	-9.4687	-9.4664	-29.713	149.25	192.93	1069.0	-0.39992	305.85	0.12717	0.018292	0.62680	1.5954	19.788	22.206	77.651	133.85	142.86	171.78	54.288	6.4991	0.012833
300.00	0.021865	652.98	0.0015314	-8.4998	-8.4969	-26.456	150.84	194.74	1047.6	-0.39031	290.31	0.12548	0.017746	0.76827	1.3016	20.440	22.893	78.177	135.79	144.92	172.79	51.090	6.6161	0.013258
305.00	0.026959	648.36	0.0015424	-7.5218	-7.5182	-23.223	152.44	196.59	1026.3	-0.38037	275.93	0.12380	0.017204	0.93429	1.0703	21.099	23.586	78.758	137.76	147.03	173.74	48.160	6.7338	0.013692
310.00	0.032975	643.70	0.0015535	-6.5345	-6.5301	-20.012	154.07	198.48	1005.1	-0.37007	262.59	0.12214	0.016665	1.1278	0.88669	21.765	24.285	79.391	139.76	149.17	174.62	45.474	6.8521	0.014137
315.00	0.040031	639.00	0.0015649	-5.5378	-5.5324	-16.823	155.71	200.40	984.03	-0.35939	250.18	0.12049	0.016131	1.3519	0.73968	22.438	24.989	80.072	141.78	151.36	175.43	43.011	6.9712	0.014592
320.00	0.048251	634.26	0.0015766	-4.5315	-4.5250	-13.653	157.37	202.36	963.05	-0.34830	238.62	0.11887	0.015600	1.6100	0.62110	23.117	25.699	80.798	143.83	153.59	176.17	40.750	7.0910	0.015056
325.00	0.057768	629.48	0.0015886	-3.5155	-3.5075	-10.502	159.05	204.35	942.17	-0.33678	227.83	0.11726	0.015072	1.9057	0.52475	23.802	26.414	81.565	145.89	155.86	176.83	38.674	7.2117	0.015531
330.00	0.068721	624.66	0.0016009	-2.4895	-2.4800	-7.3691	160.74	206.38	921.37	-0.32478	217.72	0.11568	0.014549	2.2426	0.44592	24.494	27.135	82.372	147.98	158.17	177.42	36.767	7.3333	0.016017
335.00	0.081256	619.79	0.0016135	-1.4534	-1.4421	-4.2528	162.45	208.45	900.65	-0.31227	208.26	0.11413	0.014030	2.6247	0.38100	25.192	27.860	83.215	150.08	160.53	177.91	35.015	7.4559	0.016513
340.00	0.095527	614.86	0.0016264	-0.40706	-0.39368	-1.1523	164.17	210.55	880.00	-0.29921	199.36	0.11259	0.013516	3.0563	0.32720	25.896	28.589	84.092	152.21	162.92	178.33	33.405	7.5795	0.017019
345.00	0.11169	609.88	0.0016397	0.64962	0.66541	1.9333	165.90	212.69	859.40	-0.28553	190.99	0.11109	0.013005	3.5417	0.28235	26.606	29.324	85.000	154.35	165.37	178.64	31.926	7.7043	0.017537
350.00	0.12992	604.84	0.0016533	1.7168	1.7353	5.0048	167.64	214.86	838.85	-0.27119	183.11	0.10961	0.012499	4.0858	0.24475	27.321	30.062	85.937	156.50	167.85	178.87	30.566	7.8304	0.018065
355.00	0.15038	599.74	0.0016674	2.7947	2.8163	8.0631	169.39	217.07	818.34	-0.25610	175.66	0.10816	0.011997	4.6934	0.21307	28.043	30.804	86.901	158.67	170.39	178.99	29.318	7.9579	0.018605
360.00	0.17326	594.56	0.0016819	3.8834	3.9085	11.109	171.14	219.32	797.86	-0.24020	168.61	0.10673	0.011500	5.3700	0.18622	28.769	31.549	87.889	160.85	172.97	179.01	28.172	8.0869	0.019156
365.00	0.19873	589.32	0.0016969	4.9831	5.0122	14.143	172.91	221.61	777.39	-0.22338	161.94	0.10533	0.011007	6.1211	0.16337	29.500	32.298	88.899	163.04	175.61	178.92	27.120	8.2177	0.019718
370.00	0.22698	584.00	0.0017123	6.0939	6.1274	17.167	174.67	223.95	756.93	-0.20555	155.60	0.10396	0.010520	6.9529	0.14382	30.237	33.050	89.930	165.25	178.31	178.72	26.157	8.3504	0.020292
375.00	0.25821	578.59	0.0017283	7.2160	7.2544	20.180	176.45	226.33	736.47	-0.18658	149.58	0.10262	0.010037	7.8720	0.12703	30.977	33.804	90.978	167.46	181.06	178.39	25.277	8.4853	0.020879
380.00	0.29261	573.09	0.0017449	8.3495	8.3935	23.184	178.22	228.76	715.99	-0.16633	143.85	0.10131	0.0095594	8.8853	0.11255	31.722	34.560	92.043	169.68	183.89	177.94	24.473	8.6225	0.021477
385.00	0.33039	567.50	0.0017621	9.4946	9.5448	26.179	180.00	231.24	695.48	-0.14464	138.39	0.10002	0.0090869	10.001	0.099994	32.471	35.318	93.122	171.91	186.78	177.36	23.742	8.7624	0.022089
390.00	0.37176	561.81	0.0017800	10.652	10.709	29.166	181.78	233.78	674.93	-0.12130	133.16	0.098752	0.0086198	11.226	0.089078	33.223	36.077	94.213	174.15	189.76	176.64	23.080	8.9054	0.022713
395.00	0.41693	556.00	0.0017986	11.821	11.885	32.146	183.56	236.39	654.31	-0.096100	128.17	0.097514	0.0081582	12.571	0.079548	33.979	36.837	95.314	176.40	192.83	175.78	22.482	9.0517	0.023351
400.00	0.46612	550.08	0.0018179	13.002	13.075	35.119	185.35	239.07	633.63	-0.068755	123.38	0.096301	0.0077022	14.046	0.071197	34.737	37.597	96.423	178.65	196.01	174.77	21.946	9.2018	0.024003
405.00	0.51954	544.02	0.0018382	14.195	14.278	38.087	187.13	241.84	612.85	-0.038945	118.78	0.095110	0.0072521	15.661	0.063853	35.497	38.356	97.538	180.92	199.31	173.59	21.471	9.3563	0.024670
410.00	0.57744	537.82	0.0018594	15.402	15.494	41.050	188.92	244.70	591.97	-0.0062766	114.36	0.093941	0.0068080	17.430	0.057374	36.258	39.113	98.657	183.18	202.75	172.25	21.053	9.5158	0.025352
415.00	0.64004	531.47	0.0018816	16.621	16.725	44.009	190.71	247.68	570.95	0.029725	110.09	0.092793	0.0063702	19.366	0.051637	37.021	39.869	99.777	185.46	206.35	170.73	20.691	9.6809	0.026051
420.00	0.70759	524.95	0.0019050	17.854	17.970	46.965	192.51	250.78	549.78	0.069646	105.97	0.091664	0.0059388	21.486	0.046542	37.783	40.621	100.90	187.75	210.14	169.01	20.386	9.8524	0.026767
425.00	0.78033	518.24	0.0019296	19.101	19.231	49.919	194.30	254.04	528.43	0.11421	101.98	0.090550	0.0055142	23.808	0.042002	38.545	41.369	102.01	190.04	214.17	167.09	20.136	10.031	0.027502
430.00	0.85852	511.32	0.0019557	20.362	20.506	52.873	196.10	257.48	506.86	0.16433	98.113	0.089451	0.0050965	26.354	0.037944	39.305	42.112	103.12	192.35	218.47	164.96	19.944	10.219	0.028256
435.00	0.94243	504.18	0.0019834	21.638	21.799	55.828	197.91	261.13	485.05	0.22117	94.348	0.088363	0.0046861	29.150	0.034305	40.061	42.848	104.22	194.67	223.12	162.60	19.809	10.417	0.029033
440.00	1.0323	496.78	0.0020130	22.929	23.108	58.786	199.72	265.06	462.94	0.28622	90.676	0.087282	0.0042833	32.225	0.031032	40.814	43.575	105.30	197.00	228.18	159.99	19.735	10.626	0.029834
445.00	1.1285	489.09	0.0020446	24.237	24.436	61.748	201.54	269.32	440.51	0.36146	87.081	0.086204	0.0038884	35.615	0.028078	41.560	44.291	106.37	199.36	233.77	157.11	19.725	10.850	0.030662
450.00	1.2313	481.07	0.0020787	25.562	25.782	64.717	203.38	274.00	417.67	0.44954	83.551	0.085124	0.0035021	39.364	0.025404	42.299	44.994	107.41	201.73	240.03	153.94	19.784	11.090	0.031520
455.00	1.3410	472.67	0.0021156	26.905	27.150	67.695	205.23	279.22	394.38	0.55409	80.068	0.084036	0.0031246	43.528	0.022974	43.027	45.682	108.42	204.13	247.17	150.45	19.918	11.350	0.032413
460.00	1.4580	463.83	0.0021560	28.269	28.540	70.687	207.11	285.17	370.54	0.68025	76.617	0.082931	0.0027565	48.176	0.020757	43.741	46.349	109.40	206.56	255.47	146.62	20.136	11.635	0.033347
465.00	1.5827	454.45	0.0022005	29.656	29.956	73.697	209.02	292.08	346.06	0.83549	73.177	0.081798	0.0023986	53.398	0.018727	44.438	46.992	110.33	209.03	265.37	142.42	20.448	11.951	0.034330
470.00	1.7154	444.43	0.0022501	31.067	31.400	76.731	210.97	300.38	320.80	1.0311	69.722	0.080623	0.0020516	59.314	0.016859	45.112	47.605	111.21	211.54	277.53	137.81	20.867	12.306	0.035372
475.00	1.8567	433.62	0.0023062	32.507	32.876	79.798	212.99	310.71	294.59	1.2851	66.222	0.079386	0.0017166	66.089	0.015131	45.757	48.178	112.01	214.12	293.01	132.74	21.411	12.712	0.036488
480.00	2.0071	421.77	0.0023710	33.983	34.393	82.910	215.09	324.26	267.23	1.6275	62.632	0.078059	0.0013947	73.961	0.013521	46.363	48.702	112.72	216.78	313.67	127.17	22.098	13.186	0.037702
485.00	2.1672	408.53	0.0024478	35.502	35.960	86.088	217.32	343.29	238.41	2.1131	58.887	0.076596	0.0010875	83.290	0.012006	46.915	49.158	113.30	219.54	342.99	121.04	22.949	13.756	0.039048
490.00	2.3377	393.29	0.0025426	37.082	37.594	89.365	219.75	372.95	207.73	2.8515	54.882	0.074920	0.00079745	94.660	0.010564	47.392	49.520	113.70	222.45	388.38	114.29	23.978	14.470	0.040584
495.00	2.5196	374.83	0.0026679	38.752	39.331	92.809	222.51	427.66	174.59	4.0963	50.415	0.072881	0.00052777	109.14	0.0091629	47.752	49.742	113.84	225.58	468.71	106.85	25.172	15.416	0.042422
500.00	2.7139	350.12	0.0028562	40.591	41.259	96.591	225.94	567.78	138.19	6.5699	45.006	0.070105	0.00028419	129.04	0.0077494	47.914	49.726	113.53	229.05	651.13	98.609	26.417	16.804	0.044807
505.00	2.9213	305.94	0.0032686	42.948	43.771	101.48	231.30	1499.4	98.924	12.993	36.735	0.064989	7.9324e-05	162.15	0.0061672	47.607	49.160	112.15	233.17	1496.4	89.231	27.079	19.387	0.048591
