Temperature (K)	Pressure (MPa)	Density (l, kg/m3)	Volume (l, m3/kg)	Internal Energy (l, kJ/kg)	Enthalpy (l, kJ/kg)	Entropy (l, J/g*K)	Cv (l, J/g*K)	Cp (l, J/g*K)	Sound Spd. (l, m/s)	Joule-Thomson (l, K/MPa)	Viscosity (l, uPa*s)	Therm. Cond. (l, W/m*K)	Surf. Tension (l, N/m)	Density (v, kg/m3)	Volume (v, m3/kg)	Internal Energy (v, kJ/kg)	Enthalpy (v, kJ/kg)	Entropy (v, J/g*K)	Cv (v, J/g*K)	Cp (v, J/g*K)	Sound Spd. (v, m/s)	Joule-Thomson (v, K/MPa)	Viscosity (v, uPa*s)	Therm. Cond. (v, W/m*K)
275.00	0.00069845	999.89	0.0010001	7.7590	7.7597	0.028309	4.2133	4.2139	1411.4	-0.23965	1682.0	0.56453	0.075388	0.0055066	181.60	2377.5	2504.3	9.1066	1.4199	1.8862	410.33	558.89	9.2596	0.017168
276.00	0.00075006	999.91	0.0010001	11.971	11.972	0.043600	4.2108	4.2110	1416.1	-0.23871	1627.1	0.56643	0.075247	0.0058922	169.71	2378.8	2506.1	9.0804	1.4208	1.8872	411.05	541.41	9.2835	0.017222
277.00	0.00080501	999.92	0.0010001	16.181	16.182	0.058825	4.2083	4.2083	1420.8	-0.23780	1575.0	0.56834	0.075105	0.0063013	158.70	2380.2	2508.0	9.0544	1.4216	1.8882	411.77	524.52	9.3077	0.017276
278.00	0.00086349	999.92	0.0010001	20.388	20.389	0.073985	4.2057	4.2058	1425.3	-0.23690	1525.5	0.57024	0.074963	0.0067349	148.48	2381.6	2509.8	9.0287	1.4224	1.8893	412.49	508.21	9.3320	0.017330
279.00	0.00092569	999.90	0.0010001	24.593	24.594	0.089083	4.2030	4.2035	1429.8	-0.23601	1478.5	0.57214	0.074820	0.0071945	139.00	2383.0	2511.6	9.0031	1.4233	1.8903	413.21	492.46	9.3567	0.017386
280.00	0.00099182	999.86	0.0010001	28.795	28.796	0.10412	4.2003	4.2014	1434.1	-0.23515	1433.7	0.57404	0.074677	0.0076812	130.19	2384.3	2513.4	8.9779	1.4242	1.8913	413.92	477.26	9.3815	0.017442
281.00	0.0010621	999.81	0.0010002	32.996	32.997	0.11909	4.1974	4.1994	1438.3	-0.23430	1391.0	0.57593	0.074533	0.0081963	122.01	2385.7	2515.3	8.9528	1.4250	1.8924	414.64	462.58	9.4066	0.017498
282.00	0.0011367	999.75	0.0010003	37.194	37.195	0.13401	4.1945	4.1975	1442.5	-0.23346	1350.4	0.57783	0.074388	0.0087414	114.40	2387.1	2517.1	8.9280	1.4259	1.8935	415.35	448.41	9.4319	0.017555
283.00	0.0012159	999.67	0.0010003	41.391	41.392	0.14886	4.1914	4.1958	1446.5	-0.23263	1311.6	0.57972	0.074243	0.0093178	107.32	2388.4	2518.9	8.9034	1.4268	1.8945	416.06	434.73	9.4573	0.017613
284.00	0.0012999	999.58	0.0010004	45.586	45.587	0.16366	4.1884	4.1942	1450.4	-0.23182	1274.6	0.58160	0.074097	0.0099270	100.74	2389.8	2520.8	8.8791	1.4277	1.8956	416.77	421.54	9.4831	0.017671
285.00	0.0013890	999.47	0.0010005	49.779	49.780	0.17840	4.1852	4.1927	1454.3	-0.23102	1239.3	0.58348	0.073951	0.010571	94.602	2391.2	2522.6	8.8549	1.4285	1.8967	417.48	408.81	9.5090	0.017729
286.00	0.0014835	999.35	0.0010006	53.971	53.973	0.19308	4.1820	4.1914	1458.0	-0.23024	1205.5	0.58534	0.073804	0.011250	88.887	2392.6	2524.4	8.8310	1.4294	1.8978	418.18	396.54	9.5351	0.017788
287.00	0.0015835	999.22	0.0010008	58.162	58.163	0.20771	4.1787	4.1901	1461.7	-0.22946	1173.1	0.58721	0.073656	0.011967	83.560	2393.9	2526.2	8.8073	1.4303	1.8989	418.89	384.70	9.5614	0.017848
288.00	0.0016894	999.08	0.0010009	62.351	62.353	0.22228	4.1753	4.1890	1465.2	-0.22870	1142.1	0.58906	0.073508	0.012724	78.592	2395.3	2528.1	8.7838	1.4312	1.9000	419.59	373.28	9.5879	0.017908
289.00	0.0018015	998.92	0.0010011	66.540	66.542	0.23680	4.1719	4.1879	1468.7	-0.22794	1112.5	0.59090	0.073359	0.013522	73.955	2396.7	2529.9	8.7605	1.4321	1.9012	420.29	362.26	9.6146	0.017969
290.00	0.0019200	998.76	0.0010012	70.727	70.729	0.25126	4.1684	4.1869	1472.1	-0.22720	1084.0	0.59273	0.073210	0.014363	69.625	2398.0	2531.7	8.7374	1.4330	1.9023	420.99	351.65	9.6414	0.018031
291.00	0.0020453	998.58	0.0010014	74.914	74.916	0.26568	4.1649	4.1860	1475.4	-0.22647	1056.7	0.59455	0.073060	0.015248	65.581	2399.4	2533.5	8.7145	1.4339	1.9034	421.69	341.41	9.6685	0.018092
292.00	0.0021778	998.39	0.0010016	79.099	79.101	0.28003	4.1612	4.1852	1478.6	-0.22574	1030.5	0.59636	0.072910	0.016181	61.801	2400.8	2535.3	8.6918	1.4348	1.9046	422.38	331.54	9.6957	0.018155
293.00	0.0023177	998.19	0.0010018	83.284	83.286	0.29434	4.1576	4.1845	1481.7	-0.22503	1005.3	0.59815	0.072759	0.017162	58.267	2402.1	2537.2	8.6693	1.4357	1.9057	423.08	322.03	9.7231	0.018218
294.00	0.0024654	997.98	0.0010020	87.468	87.471	0.30860	4.1539	4.1838	1484.8	-0.22432	981.14	0.59993	0.072607	0.018195	54.960	2403.5	2539.0	8.6471	1.4367	1.9069	423.77	312.85	9.7507	0.018281
295.00	0.0026212	997.76	0.0010022	91.652	91.654	0.32280	4.1501	4.1832	1487.7	-0.22362	957.87	0.60169	0.072455	0.019281	51.865	2404.8	2540.8	8.6250	1.4376	1.9081	424.46	304.01	9.7784	0.018345
296.00	0.0027856	997.53	0.0010025	95.835	95.837	0.33696	4.1463	4.1826	1490.6	-0.22293	935.48	0.60344	0.072302	0.020422	48.966	2406.2	2542.6	8.6031	1.4385	1.9092	425.15	295.49	9.8063	0.018410
297.00	0.0029590	997.29	0.0010027	100.02	100.02	0.35106	4.1424	4.1821	1493.4	-0.22225	913.92	0.60518	0.072149	0.021621	46.251	2407.6	2544.4	8.5814	1.4394	1.9104	425.84	287.27	9.8344	0.018475
298.00	0.0031417	997.04	0.0010030	104.20	104.20	0.36512	4.1385	4.1817	1496.1	-0.22157	893.15	0.60689	0.071995	0.022881	43.705	2408.9	2546.2	8.5599	1.4404	1.9116	426.52	279.35	9.8626	0.018540
299.00	0.0033342	996.78	0.0010032	108.38	108.38	0.37913	4.1345	4.1813	1498.8	-0.22090	873.14	0.60859	0.071841	0.024203	41.318	2410.3	2548.0	8.5385	1.4413	1.9129	427.21	271.71	9.8910	0.018607
300.00	0.0035368	996.51	0.0010035	112.56	112.56	0.39309	4.1305	4.1809	1501.4	-0.22024	853.84	0.61028	0.071686	0.025590	39.078	2411.6	2549.9	8.5174	1.4422	1.9141	427.89	264.35	9.9195	0.018673
301.00	0.0037501	996.23	0.0010038	116.74	116.75	0.40700	4.1264	4.1806	1503.9	-0.21958	835.23	0.61194	0.071530	0.027045	36.976	2413.0	2551.7	8.4964	1.4432	1.9153	428.57	257.25	9.9482	0.018740
302.00	0.0039745	995.95	0.0010041	120.92	120.93	0.42087	4.1223	4.1803	1506.3	-0.21893	817.26	0.61359	0.071374	0.028570	35.002	2414.4	2553.5	8.4756	1.4441	1.9166	429.25	250.41	9.9770	0.018808
303.00	0.0042105	995.65	0.0010044	125.10	125.11	0.43469	4.1182	4.1801	1508.6	-0.21829	799.91	0.61522	0.071218	0.030169	33.147	2415.7	2555.3	8.4550	1.4451	1.9178	429.93	243.81	10.006	0.018876
304.00	0.0044586	995.35	0.0010047	129.28	129.29	0.44846	4.1140	4.1799	1510.9	-0.21765	783.14	0.61682	0.071060	0.031844	31.403	2417.1	2557.1	8.4346	1.4461	1.9191	430.61	237.45	10.035	0.018945
305.00	0.0047193	995.03	0.0010050	133.46	133.47	0.46219	4.1097	4.1798	1513.1	-0.21702	766.95	0.61841	0.070903	0.033598	29.764	2418.4	2558.9	8.4144	1.4470	1.9204	431.28	231.32	10.064	0.019014
306.00	0.0049932	994.71	0.0010053	137.64	137.65	0.47587	4.1054	4.1797	1515.3	-0.21639	751.28	0.61998	0.070744	0.035434	28.222	2419.8	2560.7	8.3943	1.4480	1.9217	431.95	225.40	10.094	0.019084
307.00	0.0052807	994.38	0.0010057	141.82	141.83	0.48950	4.1011	4.1796	1517.4	-0.21577	736.13	0.62153	0.070586	0.037355	26.770	2421.1	2562.5	8.3744	1.4490	1.9230	432.62	219.69	10.123	0.019154
308.00	0.0055825	994.04	0.0010060	146.00	146.01	0.50310	4.0967	4.1795	1519.4	-0.21515	721.47	0.62305	0.070426	0.039365	25.403	2422.5	2564.3	8.3546	1.4500	1.9243	433.29	214.18	10.153	0.019225
309.00	0.0058991	993.70	0.0010063	150.18	150.19	0.51664	4.0923	4.1795	1521.3	-0.21454	707.28	0.62456	0.070266	0.041466	24.116	2423.8	2566.1	8.3351	1.4510	1.9257	433.96	208.87	10.183	0.019297
310.00	0.0062311	993.34	0.0010067	154.36	154.37	0.53015	4.0879	4.1795	1523.2	-0.21393	693.54	0.62605	0.070106	0.043663	22.903	2425.2	2567.9	8.3156	1.4520	1.9270	434.63	203.74	10.213	0.019369
311.00	0.0065792	992.98	0.0010071	158.54	158.55	0.54361	4.0834	4.1795	1525.0	-0.21332	680.22	0.62751	0.069944	0.045958	21.759	2426.5	2569.7	8.2964	1.4530	1.9284	435.29	198.80	10.243	0.019441
312.00	0.0069440	992.61	0.0010074	162.72	162.73	0.55702	4.0789	4.1796	1526.8	-0.21272	667.32	0.62895	0.069783	0.048355	20.680	2427.8	2571.5	8.2773	1.4540	1.9298	435.95	194.02	10.273	0.019514
313.00	0.0073261	992.23	0.0010078	166.90	166.91	0.57040	4.0744	4.1796	1528.5	-0.21212	654.81	0.63037	0.069621	0.050858	19.663	2429.2	2573.2	8.2584	1.4551	1.9312	436.61	189.41	10.303	0.019588
314.00	0.0077262	991.85	0.0010082	171.08	171.09	0.58373	4.0698	4.1797	1530.1	-0.21153	642.68	0.63177	0.069458	0.053470	18.702	2430.5	2575.0	8.2396	1.4561	1.9326	437.27	184.96	10.333	0.019662
315.00	0.0081451	991.46	0.0010086	175.26	175.27	0.59702	4.0652	4.1798	1531.7	-0.21094	630.91	0.63315	0.069295	0.056195	17.795	2431.9	2576.8	8.2210	1.4572	1.9341	437.93	180.66	10.364	0.019736
316.00	0.0085834	991.06	0.0010090	179.44	179.45	0.61027	4.0605	4.1800	1533.2	-0.21035	619.49	0.63450	0.069131	0.059038	16.938	2433.2	2578.6	8.2025	1.4583	1.9356	438.58	176.51	10.394	0.019811
317.00	0.0090418	990.65	0.0010094	183.62	183.63	0.62348	4.0558	4.1802	1534.7	-0.20977	608.41	0.63584	0.068967	0.062001	16.129	2434.5	2580.4	8.1842	1.4593	1.9371	439.24	172.50	10.425	0.019887
318.00	0.0095212	990.24	0.0010099	187.80	187.81	0.63664	4.0511	4.1803	1536.1	-0.20919	597.64	0.63715	0.068802	0.065090	15.363	2435.9	2582.2	8.1660	1.4604	1.9386	439.89	168.62	10.456	0.019963
319.00	0.010022	989.81	0.0010103	191.98	191.99	0.64977	4.0464	4.1805	1537.4	-0.20861	587.18	0.63844	0.068636	0.068309	14.639	2437.2	2583.9	8.1480	1.4616	1.9401	440.54	164.87	10.487	0.020040
320.00	0.010546	989.39	0.0010107	196.16	196.17	0.66285	4.0416	4.1807	1538.7	-0.20804	577.02	0.63971	0.068470	0.071662	13.954	2438.5	2585.7	8.1302	1.4627	1.9417	441.18	161.25	10.518	0.020117
321.00	0.011093	988.95	0.0010112	200.34	200.35	0.67590	4.0368	4.1810	1539.9	-0.20747	567.15	0.64095	0.068304	0.075152	13.306	2439.9	2587.5	8.1125	1.4638	1.9433	441.83	157.75	10.549	0.020195
322.00	0.011664	988.51	0.0010116	204.52	204.53	0.68890	4.0320	4.1812	1541.1	-0.20690	557.55	0.64217	0.068137	0.078786	12.693	2441.2	2589.3	8.0949	1.4650	1.9449	442.47	154.37	10.580	0.020274
323.00	0.012260	988.06	0.0010121	208.70	208.71	0.70187	4.0271	4.1815	1542.3	-0.20633	548.21	0.64337	0.067969	0.082567	12.111	2442.5	2591.0	8.0774	1.4661	1.9465	443.11	151.09	10.612	0.020353
324.00	0.012882	987.61	0.0010125	212.88	212.90	0.71479	4.0223	4.1818	1543.3	-0.20576	539.13	0.64455	0.067801	0.086500	11.561	2443.9	2592.8	8.0601	1.4673	1.9482	443.75	147.92	10.643	0.020432
325.00	0.013531	987.15	0.0010130	217.07	217.08	0.72768	4.0174	4.1821	1544.3	-0.20520	530.29	0.64571	0.067632	0.090590	11.039	2445.2	2594.6	8.0430	1.4685	1.9499	444.39	144.85	10.675	0.020512
326.00	0.014208	986.68	0.0010135	221.25	221.26	0.74053	4.0124	4.1824	1545.3	-0.20464	521.69	0.64685	0.067463	0.094842	10.544	2446.5	2596.3	8.0260	1.4697	1.9516	445.02	141.89	10.706	0.020593
327.00	0.014914	986.21	0.0010140	225.43	225.45	0.75334	4.0075	4.1827	1546.2	-0.20408	513.32	0.64796	0.067293	0.099261	10.074	2447.8	2598.1	8.0091	1.4710	1.9533	445.66	139.01	10.738	0.020674
328.00	0.015649	985.73	0.0010145	229.61	229.63	0.76611	4.0025	4.1831	1547.1	-0.20352	505.16	0.64905	0.067123	0.10385	9.6291	2449.1	2599.8	7.9923	1.4722	1.9551	446.29	136.23	10.770	0.020756
329.00	0.016415	985.24	0.0010150	233.80	233.81	0.77884	3.9976	4.1835	1547.9	-0.20296	497.22	0.65013	0.066952	0.10862	9.2064	2450.5	2601.6	7.9757	1.4735	1.9569	446.92	133.53	10.801	0.020839
330.00	0.017213	984.75	0.0010155	237.98	238.00	0.79154	3.9925	4.1838	1548.7	-0.20241	489.49	0.65118	0.066781	0.11357	8.8050	2451.8	2603.3	7.9592	1.4748	1.9587	447.54	130.92	10.833	0.020922
331.00	0.018044	984.25	0.0010160	242.16	242.18	0.80420	3.9875	4.1842	1549.4	-0.20185	481.95	0.65220	0.066609	0.11871	8.4238	2453.1	2605.1	7.9429	1.4761	1.9606	448.17	128.39	10.865	0.021005
332.00	0.018909	983.75	0.0010165	246.35	246.37	0.81682	3.9825	4.1846	1550.1	-0.20130	474.60	0.65321	0.066437	0.12404	8.0616	2454.4	2606.8	7.9267	1.4774	1.9625	448.79	125.94	10.898	0.021089
333.00	0.019808	983.24	0.0010170	250.53	250.55	0.82941	3.9774	4.1851	1550.7	-0.20075	467.44	0.65420	0.066264	0.12958	7.7174	2455.7	2608.6	7.9106	1.4787	1.9645	449.41	123.56	10.930	0.021174
334.00	0.020744	982.72	0.0010176	254.72	254.74	0.84196	3.9723	4.1855	1551.3	-0.20020	460.45	0.65517	0.066091	0.13532	7.3901	2457.0	2610.3	7.8946	1.4801	1.9664	450.03	121.25	10.962	0.021259
335.00	0.021718	982.20	0.0010181	258.90	258.93	0.85447	3.9672	4.1860	1551.9	-0.19964	453.64	0.65611	0.065917	0.14127	7.0788	2458.3	2612.1	7.8787	1.4815	1.9684	450.64	119.01	10.994	0.021345
336.00	0.022730	981.67	0.0010187	263.09	263.11	0.86695	3.9621	4.1864	1552.3	-0.19909	446.99	0.65704	0.065743	0.14743	6.7827	2459.6	2613.8	7.8630	1.4829	1.9705	451.26	116.84	11.027	0.021432
337.00	0.023781	981.14	0.0010192	267.28	267.30	0.87939	3.9570	4.1869	1552.8	-0.19855	440.51	0.65795	0.065568	0.15382	6.5009	2460.9	2615.5	7.8474	1.4843	1.9726	451.87	114.73	11.059	0.021519
338.00	0.024874	980.60	0.0010198	271.46	271.49	0.89179	3.9519	4.1874	1553.2	-0.19800	434.18	0.65883	0.065392	0.16045	6.2327	2462.2	2617.2	7.8319	1.4858	1.9747	452.47	112.69	11.092	0.021607
339.00	0.026009	980.05	0.0010204	275.65	275.68	0.90417	3.9467	4.1879	1553.6	-0.19745	428.00	0.65970	0.065216	0.16730	5.9772	2463.5	2619.0	7.8165	1.4873	1.9768	453.08	110.70	11.124	0.021695
340.00	0.027188	979.50	0.0010209	279.84	279.87	0.91650	3.9416	4.1885	1553.9	-0.19690	421.97	0.66055	0.065040	0.17440	5.7339	2464.8	2620.7	7.8013	1.4888	1.9790	453.68	108.77	11.157	0.021784
341.00	0.028411	978.95	0.0010215	284.03	284.06	0.92880	3.9364	4.1890	1554.2	-0.19635	416.08	0.66138	0.064863	0.18175	5.5020	2466.1	2622.4	7.7862	1.4903	1.9813	454.28	106.89	11.190	0.021873
342.00	0.029681	978.39	0.0010221	288.22	288.25	0.94107	3.9312	4.1896	1554.4	-0.19580	410.33	0.66218	0.064685	0.18936	5.2810	2467.4	2624.1	7.7711	1.4919	1.9835	454.88	105.07	11.223	0.021963
343.00	0.030999	977.82	0.0010227	292.40	292.44	0.95330	3.9260	4.1901	1554.6	-0.19525	404.71	0.66298	0.064508	0.19723	5.0703	2468.7	2625.8	7.7562	1.4934	1.9859	455.48	103.30	11.255	0.022054
344.00	0.032366	977.25	0.0010233	296.59	296.63	0.96550	3.9208	4.1907	1554.7	-0.19470	399.22	0.66375	0.064329	0.20537	4.8693	2469.9	2627.5	7.7414	1.4951	1.9882	456.07	101.58	11.288	0.022146
345.00	0.033783	976.67	0.0010239	300.79	300.82	0.97766	3.9156	4.1913	1554.9	-0.19415	393.85	0.66450	0.064150	0.21378	4.6776	2471.2	2629.3	7.7267	1.4967	1.9906	456.67	99.902	11.321	0.022238
346.00	0.035253	976.09	0.0010245	304.98	305.01	0.98979	3.9104	4.1919	1554.9	-0.19360	388.61	0.66524	0.063971	0.22249	4.4947	2472.5	2631.0	7.7122	1.4983	1.9931	457.25	98.272	11.354	0.022330
347.00	0.036776	975.50	0.0010251	309.17	309.21	1.0019	3.9052	4.1926	1555.0	-0.19305	383.48	0.66595	0.063791	0.23148	4.3200	2473.8	2632.7	7.6977	1.5000	1.9956	457.84	96.686	11.388	0.022423
348.00	0.038354	974.90	0.0010257	313.36	313.40	1.0140	3.8999	4.1932	1555.0	-0.19250	378.47	0.66665	0.063610	0.24077	4.1533	2475.1	2634.3	7.6833	1.5018	1.9981	458.42	95.143	11.421	0.022517
349.00	0.039989	974.31	0.0010264	317.55	317.60	1.0260	3.8947	4.1939	1554.9	-0.19195	373.56	0.66734	0.063429	0.25037	3.9940	2476.3	2636.0	7.6691	1.5035	2.0007	459.01	93.641	11.454	0.022612
350.00	0.041682	973.70	0.0010270	321.75	321.79	1.0380	3.8895	4.1946	1554.8	-0.19140	368.77	0.66800	0.063248	0.26029	3.8419	2477.6	2637.7	7.6549	1.5053	2.0033	459.58	92.178	11.487	0.022707
351.00	0.043435	973.09	0.0010277	325.94	325.99	1.0500	3.8842	4.1953	1554.7	-0.19085	364.08	0.66865	0.063066	0.27053	3.6965	2478.9	2639.4	7.6409	1.5071	2.0060	460.16	90.753	11.521	0.022803
352.00	0.045249	972.48	0.0010283	330.14	330.18	1.0619	3.8790	4.1960	1554.5	-0.19029	359.49	0.66928	0.062883	0.28110	3.5575	2480.1	2641.1	7.6270	1.5089	2.0088	460.73	89.365	11.554	0.022899
353.00	0.047127	971.86	0.0010290	334.33	334.38	1.0738	3.8737	4.1968	1554.4	-0.18974	355.00	0.66990	0.062700	0.29201	3.4246	2481.4	2642.8	7.6131	1.5108	2.0116	461.30	88.012	11.587	0.022996
354.00	0.049070	971.24	0.0010296	338.53	338.58	1.0857	3.8685	4.1975	1554.1	-0.18918	350.60	0.67050	0.062517	0.30326	3.2975	2482.6	2644.4	7.5994	1.5127	2.0144	461.87	86.694	11.621	0.023094
355.00	0.051080	970.61	0.0010303	342.73	342.78	1.0975	3.8632	4.1983	1553.9	-0.18862	346.30	0.67108	0.062333	0.31487	3.1759	2483.9	2646.1	7.5857	1.5146	2.0173	462.44	85.409	11.654	0.023193
356.00	0.053158	969.97	0.0010310	346.93	346.98	1.1093	3.8580	4.1991	1553.6	-0.18806	342.09	0.67164	0.062149	0.32685	3.0595	2485.1	2647.8	7.5722	1.5166	2.0202	463.00	84.155	11.688	0.023292
357.00	0.055307	969.33	0.0010316	351.13	351.18	1.1211	3.8527	4.1999	1553.2	-0.18750	337.97	0.67220	0.061964	0.33920	2.9481	2486.4	2649.4	7.5588	1.5186	2.0232	463.56	82.933	11.721	0.023391
358.00	0.057527	968.69	0.0010323	355.32	355.38	1.1328	3.8475	4.2007	1552.8	-0.18694	333.93	0.67273	0.061778	0.35193	2.8414	2487.6	2651.1	7.5454	1.5206	2.0263	464.12	81.740	11.755	0.023492
359.00	0.059822	968.04	0.0010330	359.53	359.59	1.1446	3.8422	4.2016	1552.4	-0.18638	329.97	0.67325	0.061592	0.36506	2.7393	2488.9	2652.7	7.5321	1.5226	2.0294	464.67	80.576	11.789	0.023593
360.00	0.062194	967.39	0.0010337	363.73	363.79	1.1562	3.8369	4.2024	1552.0	-0.18581	326.10	0.67376	0.061406	0.37858	2.6414	2490.1	2654.4	7.5190	1.5247	2.0326	465.22	79.440	11.823	0.023695
361.00	0.064643	966.73	0.0010344	367.93	368.00	1.1679	3.8317	4.2033	1551.5	-0.18525	322.30	0.67425	0.061219	0.39251	2.5477	2491.3	2656.0	7.5059	1.5269	2.0358	465.77	78.331	11.856	0.023797
362.00	0.067172	966.06	0.0010351	372.13	372.20	1.1795	3.8264	4.2042	1551.0	-0.18468	318.58	0.67472	0.061032	0.40686	2.4578	2492.6	2657.7	7.4929	1.5290	2.0391	466.32	77.249	11.890	0.023900
363.00	0.069783	965.40	0.0010358	376.34	376.41	1.1911	3.8212	4.2051	1550.5	-0.18411	314.94	0.67518	0.060844	0.42164	2.3717	2493.8	2659.3	7.4800	1.5313	2.0424	466.86	76.191	11.924	0.024004
364.00	0.072478	964.72	0.0010366	380.54	380.62	1.2027	3.8159	4.2061	1549.9	-0.18354	311.37	0.67563	0.060656	0.43686	2.2891	2495.0	2660.9	7.4672	1.5335	2.0458	467.40	75.157	11.958	0.024108
365.00	0.075260	964.05	0.0010373	384.75	384.82	1.2142	3.8107	4.2070	1549.3	-0.18296	307.87	0.67606	0.060467	0.45253	2.2098	2496.2	2662.5	7.4545	1.5358	2.0493	467.93	74.148	11.992	0.024213
366.00	0.078129	963.36	0.0010380	388.95	389.03	1.2257	3.8055	4.2080	1548.6	-0.18238	304.43	0.67648	0.060278	0.46865	2.1338	2497.4	2664.2	7.4419	1.5381	2.0528	468.47	73.161	12.026	0.024319
367.00	0.081090	962.68	0.0010388	393.16	393.25	1.2372	3.8002	4.2090	1548.0	-0.18181	301.07	0.67689	0.060088	0.48524	2.0608	2498.7	2665.8	7.4294	1.5405	2.0564	469.00	72.196	12.060	0.024426
368.00	0.084142	961.98	0.0010395	397.37	397.46	1.2487	3.7950	4.2101	1547.3	-0.18122	297.77	0.67728	0.059898	0.50231	1.9908	2499.9	2667.4	7.4169	1.5428	2.0601	469.53	71.252	12.094	0.024533
369.00	0.087290	961.29	0.0010403	401.58	401.67	1.2601	3.7898	4.2111	1546.5	-0.18064	294.53	0.67766	0.059708	0.51986	1.9236	2501.1	2669.0	7.4046	1.5453	2.0638	470.05	70.330	12.128	0.024641
370.00	0.090535	960.59	0.0010410	405.79	405.88	1.2715	3.7846	4.2122	1545.8	-0.18005	291.36	0.67802	0.059517	0.53792	1.8590	2502.3	2670.6	7.3923	1.5478	2.0676	470.57	69.427	12.162	0.024750
371.00	0.093880	959.88	0.0010418	410.00	410.10	1.2829	3.7793	4.2133	1545.0	-0.17947	288.24	0.67838	0.059325	0.55648	1.7970	2503.5	2672.2	7.3801	1.5503	2.0715	471.09	68.544	12.196	0.024859
372.00	0.097326	959.17	0.0010426	414.21	414.32	1.2942	3.7741	4.2144	1544.1	-0.17887	285.19	0.67872	0.059133	0.57557	1.7374	2504.7	2673.8	7.3680	1.5528	2.0754	471.61	67.679	12.230	0.024969
373.00	0.10088	958.46	0.0010433	418.43	418.53	1.3055	3.7689	4.2155	1543.3	-0.17828	282.19	0.67904	0.058941	0.59518	1.6802	2505.8	2675.3	7.3559	1.5554	2.0794	472.12	66.833	12.264	0.025080
374.00	0.10453	957.74	0.0010441	422.64	422.75	1.3168	3.7637	4.2167	1542.4	-0.17768	279.24	0.67936	0.058748	0.61534	1.6251	2507.0	2676.9	7.3440	1.5581	2.0835	472.63	66.004	12.298	0.025191
375.00	0.10830	957.01	0.0010449	426.86	426.97	1.3281	3.7586	4.2178	1541.5	-0.17708	276.36	0.67966	0.058555	0.63605	1.5722	2508.2	2678.5	7.3321	1.5608	2.0877	473.13	65.193	12.332	0.025303
376.00	0.11218	956.29	0.0010457	431.08	431.19	1.3393	3.7534	4.2190	1540.5	-0.17648	273.52	0.67995	0.058361	0.65732	1.5213	2509.4	2680.0	7.3203	1.5635	2.0919	473.64	64.398	12.367	0.025416
377.00	0.11617	955.55	0.0010465	435.29	435.42	1.3505	3.7482	4.2203	1539.6	-0.17588	270.74	0.68023	0.058166	0.67917	1.4724	2510.6	2681.6	7.3086	1.5663	2.0962	474.14	63.619	12.401	0.025530
378.00	0.12028	954.82	0.0010473	439.51	439.64	1.3617	3.7431	4.2215	1538.6	-0.17527	268.01	0.68050	0.057972	0.70161	1.4253	2511.7	2683.2	7.2969	1.5691	2.1006	474.63	62.855	12.435	0.025644
379.00	0.12450	954.07	0.0010481	443.73	443.87	1.3728	3.7379	4.2228	1537.5	-0.17465	265.33	0.68075	0.057777	0.72465	1.3800	2512.9	2684.7	7.2853	1.5720	2.1050	475.12	62.107	12.469	0.025759
380.00	0.12885	953.33	0.0010490	447.96	448.09	1.3839	3.7328	4.2241	1536.5	-0.17404	262.69	0.68100	0.057581	0.74830	1.3364	2514.1	2686.2	7.2738	1.5749	2.1096	475.61	61.373	12.504	0.025875
381.00	0.13333	952.58	0.0010498	452.18	452.32	1.3950	3.7276	4.2254	1535.4	-0.17342	260.11	0.68123	0.057385	0.77257	1.2944	2515.2	2687.8	7.2624	1.5778	2.1142	476.10	60.654	12.538	0.025991
382.00	0.13793	951.82	0.0010506	456.40	456.55	1.4061	3.7225	4.2268	1534.2	-0.17280	257.56	0.68145	0.057189	0.79748	1.2539	2516.4	2689.3	7.2510	1.5808	2.1189	476.58	59.948	12.572	0.026109
383.00	0.14266	951.06	0.0010515	460.63	460.78	1.4172	3.7174	4.2281	1533.1	-0.17217	255.07	0.68166	0.056992	0.82304	1.2150	2517.5	2690.8	7.2398	1.5839	2.1236	477.06	59.255	12.607	0.026227
384.00	0.14752	950.30	0.0010523	464.86	465.01	1.4282	3.7123	4.2295	1531.9	-0.17154	252.62	0.68186	0.056794	0.84926	1.1775	2518.6	2692.4	7.2286	1.5870	2.1285	477.54	58.576	12.641	0.026345
385.00	0.15252	949.53	0.0010532	469.09	469.25	1.4392	3.7072	4.2309	1530.7	-0.17091	250.21	0.68205	0.056596	0.87615	1.1414	2519.8	2693.9	7.2174	1.5901	2.1334	478.01	57.909	12.675	0.026465
386.00	0.15766	948.76	0.0010540	473.32	473.48	1.4502	3.7022	4.2324	1529.5	-0.17027	247.84	0.68222	0.056398	0.90372	1.1065	2520.9	2695.4	7.2063	1.5933	2.1385	478.48	57.254	12.710	0.026585
387.00	0.16293	947.98	0.0010549	477.55	477.72	1.4611	3.6971	4.2339	1528.2	-0.16963	245.51	0.68239	0.056199	0.93200	1.0730	2522.0	2696.9	7.1953	1.5966	2.1436	478.95	56.611	12.744	0.026706
388.00	0.16836	947.20	0.0010557	481.78	481.96	1.4720	3.6920	4.2354	1526.9	-0.16899	243.23	0.68255	0.056000	0.96099	1.0406	2523.2	2698.4	7.1844	1.5999	2.1488	479.41	55.979	12.779	0.026828
389.00	0.17393	946.41	0.0010566	486.01	486.20	1.4829	3.6870	4.2369	1525.6	-0.16834	240.98	0.68269	0.055801	0.99070	1.0094	2524.3	2699.8	7.1735	1.6032	2.1541	479.87	55.359	12.813	0.026950
390.00	0.17964	945.62	0.0010575	490.25	490.44	1.4938	3.6820	4.2384	1524.3	-0.16769	238.77	0.68283	0.055601	1.0212	0.97928	2525.4	2701.3	7.1627	1.6066	2.1594	480.32	54.749	12.848	0.027074
391.00	0.18552	944.83	0.0010584	494.49	494.68	1.5047	3.6769	4.2400	1522.9	-0.16703	236.60	0.68295	0.055400	1.0524	0.95024	2526.5	2702.8	7.1520	1.6101	2.1649	480.77	54.150	12.882	0.027197
392.00	0.19154	944.03	0.0010593	498.72	498.93	1.5155	3.6719	4.2416	1521.5	-0.16637	234.46	0.68307	0.055200	1.0843	0.92223	2527.6	2704.3	7.1413	1.6136	2.1705	481.22	53.561	12.916	0.027322
393.00	0.19773	943.23	0.0010602	502.96	503.17	1.5263	3.6669	4.2433	1520.1	-0.16571	232.36	0.68317	0.054998	1.1171	0.89519	2528.7	2705.7	7.1307	1.6171	2.1761	481.67	52.982	12.951	0.027448
394.00	0.20408	942.42	0.0010611	507.21	507.42	1.5371	3.6620	4.2449	1518.7	-0.16504	230.30	0.68327	0.054797	1.1506	0.86909	2529.8	2707.2	7.1202	1.6207	2.1818	482.11	52.412	12.985	0.027574
395.00	0.21060	941.61	0.0010620	511.45	511.67	1.5478	3.6570	4.2466	1517.2	-0.16436	228.27	0.68335	0.054595	1.1850	0.84389	2530.9	2708.6	7.1097	1.6244	2.1877	482.54	51.852	13.020	0.027701
396.00	0.21728	940.79	0.0010629	515.69	515.93	1.5586	3.6520	4.2483	1515.7	-0.16368	226.27	0.68343	0.054392	1.2202	0.81956	2532.0	2710.0	7.0992	1.6281	2.1936	482.98	51.301	13.054	0.027829
397.00	0.22414	939.97	0.0010639	519.94	520.18	1.5693	3.6471	4.2501	1514.2	-0.16300	224.31	0.68350	0.054189	1.2562	0.79606	2533.0	2711.5	7.0889	1.6319	2.1996	483.41	50.758	13.089	0.027957
398.00	0.23117	939.15	0.0010648	524.19	524.44	1.5800	3.6422	4.2519	1512.6	-0.16231	222.37	0.68355	0.053986	1.2931	0.77336	2534.1	2712.9	7.0786	1.6357	2.2058	483.83	50.224	13.123	0.028087
399.00	0.23838	938.32	0.0010657	528.44	528.69	1.5906	3.6373	4.2537	1511.1	-0.16162	220.47	0.68360	0.053782	1.3308	0.75143	2535.2	2714.3	7.0683	1.6396	2.2120	484.25	49.699	13.158	0.028217
400.00	0.24577	937.49	0.0010667	532.69	532.95	1.6013	3.6324	4.2555	1509.5	-0.16092	218.60	0.68364	0.053578	1.3694	0.73024	2536.2	2715.7	7.0581	1.6435	2.2183	484.67	49.181	13.192	0.028347
401.00	0.25335	936.65	0.0010676	536.94	537.21	1.6119	3.6275	4.2574	1507.8	-0.16022	216.76	0.68367	0.053373	1.4089	0.70976	2537.3	2717.1	7.0480	1.6475	2.2247	485.09	48.671	13.227	0.028479
402.00	0.26111	935.81	0.0010686	541.20	541.48	1.6225	3.6226	4.2593	1506.2	-0.15951	214.94	0.68369	0.053168	1.4494	0.68996	2538.3	2718.5	7.0379	1.6515	2.2312	485.50	48.169	13.262	0.028611
403.00	0.26907	934.96	0.0010696	545.46	545.74	1.6331	3.6178	4.2612	1504.5	-0.15880	213.16	0.68370	0.052963	1.4907	0.67082	2539.4	2719.9	7.0279	1.6556	2.2379	485.91	47.675	13.296	0.028745
404.00	0.27722	934.11	0.0010705	549.71	550.01	1.6436	3.6129	4.2632	1502.8	-0.15808	211.40	0.68370	0.052757	1.5330	0.65231	2540.4	2721.2	7.0180	1.6597	2.2446	486.31	47.187	13.331	0.028879
405.00	0.28558	933.26	0.0010715	553.98	554.28	1.6541	3.6081	4.2652	1501.1	-0.15736	209.68	0.68369	0.052551	1.5763	0.63441	2541.4	2722.6	7.0081	1.6639	2.2514	486.71	46.707	13.365	0.029013
406.00	0.29413	932.40	0.0010725	558.24	558.55	1.6647	3.6033	4.2672	1499.4	-0.15663	207.97	0.68368	0.052344	1.6205	0.61709	2542.5	2724.0	6.9982	1.6682	2.2583	487.10	46.234	13.400	0.029149
407.00	0.30289	931.54	0.0010735	562.50	562.83	1.6752	3.5985	4.2692	1497.6	-0.15590	206.30	0.68365	0.052137	1.6657	0.60033	2543.5	2725.3	6.9884	1.6725	2.2654	487.50	45.767	13.434	0.029285
408.00	0.31187	930.67	0.0010745	566.77	567.10	1.6856	3.5937	4.2713	1495.8	-0.15516	204.65	0.68362	0.051930	1.7120	0.58412	2544.5	2726.7	6.9787	1.6769	2.2725	487.88	45.307	13.469	0.029422
409.00	0.32105	929.80	0.0010755	571.04	571.38	1.6961	3.5890	4.2734	1494.0	-0.15441	203.03	0.68357	0.051722	1.7593	0.56842	2545.5	2728.0	6.9690	1.6813	2.2797	488.27	44.853	13.503	0.029560
410.00	0.33045	928.92	0.0010765	575.31	575.66	1.7065	3.5842	4.2756	1492.2	-0.15366	201.43	0.68352	0.051514	1.8076	0.55323	2546.5	2729.3	6.9593	1.6858	2.2871	488.65	44.405	13.538	0.029699
411.00	0.34008	928.04	0.0010775	579.58	579.95	1.7169	3.5795	4.2778	1490.3	-0.15290	199.85	0.68346	0.051306	1.8569	0.53852	2547.5	2730.6	6.9497	1.6903	2.2945	489.02	43.963	13.572	0.029838
412.00	0.34993	927.16	0.0010786	583.85	584.23	1.7273	3.5748	4.2800	1488.4	-0.15214	198.30	0.68339	0.051097	1.9074	0.52428	2548.5	2731.9	6.9402	1.6949	2.3021	489.39	43.528	13.607	0.029978
413.00	0.36001	926.27	0.0010796	588.13	588.52	1.7377	3.5701	4.2822	1486.5	-0.15137	196.77	0.68331	0.050887	1.9589	0.51049	2549.5	2733.2	6.9307	1.6995	2.3098	489.76	43.097	13.641	0.030119
414.00	0.37032	925.38	0.0010806	592.41	592.81	1.7480	3.5654	4.2845	1484.6	-0.15060	195.26	0.68323	0.050678	2.0116	0.49712	2550.4	2734.5	6.9213	1.7042	2.3176	490.13	42.673	13.676	0.030261
415.00	0.38087	924.48	0.0010817	596.69	597.10	1.7583	3.5607	4.2868	1482.6	-0.14982	193.78	0.68313	0.050468	2.0654	0.48418	2551.4	2735.8	6.9119	1.7090	2.3254	490.49	42.254	13.711	0.030404
416.00	0.39166	923.58	0.0010827	600.97	601.40	1.7687	3.5560	4.2892	1480.6	-0.14903	192.32	0.68303	0.050257	2.1203	0.47164	2552.4	2737.1	6.9025	1.7138	2.3334	490.84	41.840	13.745	0.030547
417.00	0.40269	922.67	0.0010838	605.26	605.69	1.7789	3.5514	4.2916	1478.6	-0.14823	190.88	0.68292	0.050046	2.1764	0.45948	2553.3	2738.4	6.8932	1.7186	2.3416	491.19	41.432	13.780	0.030691
418.00	0.41397	921.76	0.0010849	609.54	609.99	1.7892	3.5468	4.2940	1476.6	-0.14743	189.46	0.68279	0.049835	2.2336	0.44770	2554.3	2739.6	6.8840	1.7235	2.3498	491.54	41.029	13.814	0.030836
419.00	0.42551	920.85	0.0010860	613.83	614.30	1.7995	3.5422	4.2965	1474.6	-0.14663	188.06	0.68267	0.049623	2.2921	0.43628	2555.2	2740.9	6.8748	1.7285	2.3581	491.88	40.630	13.849	0.030982
420.00	0.43730	919.93	0.0010870	618.13	618.60	1.8097	3.5376	4.2990	1472.5	-0.14581	186.68	0.68253	0.049411	2.3518	0.42520	2556.2	2742.1	6.8656	1.7335	2.3666	492.22	40.237	13.883	0.031128
421.00	0.44935	919.01	0.0010881	622.42	622.91	1.8199	3.5330	4.3015	1470.4	-0.14499	185.32	0.68238	0.049199	2.4128	0.41446	2557.1	2743.3	6.8565	1.7386	2.3751	492.56	39.848	13.918	0.031276
422.00	0.46167	918.08	0.0010892	626.72	627.22	1.8301	3.5285	4.3041	1468.3	-0.14416	183.98	0.68223	0.048986	2.4750	0.40405	2558.0	2744.5	6.8474	1.7437	2.3838	492.89	39.464	13.952	0.031424
423.00	0.47425	917.15	0.0010903	631.02	631.53	1.8403	3.5239	4.3067	1466.2	-0.14333	182.66	0.68207	0.048773	2.5384	0.39394	2558.9	2745.7	6.8384	1.7489	2.3926	493.22	39.085	13.987	0.031573
424.00	0.48711	916.21	0.0010915	635.32	635.85	1.8504	3.5194	4.3093	1464.0	-0.14249	181.35	0.68190	0.048560	2.6032	0.38414	2559.8	2746.9	6.8294	1.7542	2.4015	493.54	38.710	14.021	0.031723
425.00	0.50025	915.27	0.0010926	639.62	640.17	1.8606	3.5149	4.3120	1461.8	-0.14164	180.07	0.68172	0.048346	2.6693	0.37463	2560.7	2748.1	6.8205	1.7594	2.4105	493.86	38.339	14.056	0.031873
426.00	0.51367	914.33	0.0010937	643.93	644.49	1.8707	3.5104	4.3147	1459.6	-0.14078	178.80	0.68153	0.048132	2.7367	0.36540	2561.6	2749.3	6.8116	1.7648	2.4196	494.17	37.973	14.090	0.032025
427.00	0.52738	913.38	0.0010948	648.24	648.81	1.8808	3.5059	4.3175	1457.4	-0.13991	177.55	0.68134	0.047917	2.8055	0.35644	2562.5	2750.5	6.8027	1.7702	2.4289	494.48	37.611	14.125	0.032177
428.00	0.54138	912.43	0.0010960	652.55	653.14	1.8909	3.5015	4.3203	1455.2	-0.13904	176.32	0.68113	0.047703	2.8757	0.34774	2563.4	2751.6	6.7939	1.7756	2.4382	494.79	37.253	14.159	0.032330
429.00	0.55567	911.47	0.0010971	656.86	657.47	1.9010	3.4970	4.3231	1452.9	-0.13816	175.11	0.68092	0.047487	2.9473	0.33930	2564.2	2752.8	6.7851	1.7811	2.4477	495.09	36.900	14.194	0.032484
430.00	0.57026	910.51	0.0010983	661.18	661.80	1.9110	3.4926	4.3260	1450.6	-0.13728	173.91	0.68070	0.047272	3.0202	0.33110	2565.1	2753.9	6.7764	1.7867	2.4573	495.39	36.550	14.228	0.032638
431.00	0.58516	909.54	0.0010995	665.50	666.14	1.9210	3.4882	4.3289	1448.3	-0.13638	172.73	0.68047	0.047056	3.0947	0.32314	2566.0	2755.1	6.7677	1.7923	2.4670	495.68	36.204	14.263	0.032794
432.00	0.60036	908.57	0.0011006	669.82	670.48	1.9311	3.4838	4.3319	1446.0	-0.13548	171.56	0.68024	0.046840	3.1705	0.31540	2566.8	2756.2	6.7590	1.7979	2.4768	495.97	35.862	14.297	0.032950
433.00	0.61588	907.60	0.0011018	674.14	674.82	1.9411	3.4794	4.3349	1443.6	-0.13456	170.41	0.67999	0.046623	3.2479	0.30789	2567.7	2757.3	6.7504	1.8036	2.4868	496.25	35.524	14.332	0.033107
434.00	0.63172	906.62	0.0011030	678.47	679.17	1.9510	3.4751	4.3379	1441.2	-0.13364	169.28	0.67974	0.046406	3.3268	0.30059	2568.5	2758.4	6.7418	1.8093	2.4968	496.53	35.190	14.366	0.033265
435.00	0.64787	905.63	0.0011042	682.80	683.52	1.9610	3.4707	4.3410	1438.8	-0.13271	168.16	0.67948	0.046189	3.4072	0.29350	2569.3	2759.5	6.7333	1.8151	2.5070	496.81	34.859	14.401	0.033424
436.00	0.66436	904.65	0.0011054	687.13	687.87	1.9710	3.4664	4.3442	1436.4	-0.13178	167.05	0.67921	0.045971	3.4891	0.28660	2570.1	2760.5	6.7248	1.8210	2.5173	497.08	34.532	14.435	0.033583
437.00	0.68118	903.65	0.0011066	691.47	692.22	1.9809	3.4621	4.3473	1434.0	-0.13083	165.96	0.67893	0.045754	3.5726	0.27990	2570.9	2761.6	6.7163	1.8268	2.5277	497.35	34.209	14.469	0.033744
438.00	0.69833	902.66	0.0011078	695.81	696.58	1.9908	3.4578	4.3505	1431.5	-0.12988	164.88	0.67865	0.045535	3.6578	0.27339	2571.7	2762.7	6.7079	1.8328	2.5383	497.61	33.889	14.504	0.033905
439.00	0.71583	901.65	0.0011091	700.15	700.94	2.0007	3.4535	4.3538	1429.0	-0.12891	163.82	0.67836	0.045317	3.7445	0.26706	2572.5	2763.7	6.6995	1.8388	2.5489	497.87	33.572	14.538	0.034067
440.00	0.73367	900.65	0.0011103	704.50	705.31	2.0106	3.4493	4.3571	1426.5	-0.12794	162.77	0.67805	0.045098	3.8329	0.26090	2573.3	2764.7	6.6911	1.8448	2.5597	498.12	33.259	14.573	0.034230
441.00	0.75186	899.64	0.0011116	708.84	709.68	2.0205	3.4450	4.3605	1424.0	-0.12695	161.73	0.67774	0.044879	3.9229	0.25491	2574.1	2765.7	6.6828	1.8508	2.5706	498.37	32.950	14.607	0.034393
442.00	0.77041	898.62	0.0011128	713.19	714.05	2.0303	3.4408	4.3639	1421.5	-0.12596	160.71	0.67743	0.044659	4.0146	0.24909	2574.9	2766.8	6.6745	1.8570	2.5816	498.61	32.643	14.642	0.034558
443.00	0.78932	897.60	0.0011141	717.55	718.43	2.0402	3.4366	4.3673	1418.9	-0.12496	159.70	0.67710	0.044439	4.1080	0.24343	2575.6	2767.8	6.6662	1.8631	2.5928	498.86	32.340	14.676	0.034723
444.00	0.80859	896.58	0.0011153	721.90	722.81	2.0500	3.4324	4.3708	1416.3	-0.12395	158.70	0.67677	0.044219	4.2032	0.23791	2576.4	2768.7	6.6580	1.8693	2.6040	499.09	32.040	14.711	0.034889
445.00	0.82824	895.55	0.0011166	726.26	727.19	2.0598	3.4283	4.3743	1413.7	-0.12293	157.72	0.67642	0.043999	4.3001	0.23255	2577.1	2769.7	6.6498	1.8755	2.6154	499.32	31.744	14.745	0.035056
446.00	0.84826	894.52	0.0011179	730.63	731.58	2.0696	3.4241	4.3779	1411.1	-0.12190	156.75	0.67607	0.043778	4.3988	0.22733	2577.8	2770.7	6.6416	1.8818	2.6269	499.55	31.450	14.779	0.035224
447.00	0.86866	893.48	0.0011192	734.99	735.97	2.0794	3.4200	4.3815	1408.4	-0.12086	155.79	0.67571	0.043557	4.4993	0.22225	2578.6	2771.6	6.6334	1.8882	2.6386	499.77	31.160	14.814	0.035393
448.00	0.88945	892.44	0.0011205	739.36	740.36	2.0892	3.4159	4.3852	1405.8	-0.11980	154.84	0.67535	0.043335	4.6017	0.21731	2579.3	2772.6	6.6253	1.8945	2.6503	499.99	30.873	14.848	0.035562
449.00	0.91063	891.39	0.0011218	743.74	744.76	2.0989	3.4118	4.3889	1403.1	-0.11874	153.90	0.67497	0.043114	4.7059	0.21250	2580.0	2773.5	6.6173	1.9009	2.6622	500.20	30.588	14.883	0.035733
450.00	0.93220	890.34	0.0011232	748.11	749.16	2.1087	3.4077	4.3927	1400.4	-0.11767	152.98	0.67459	0.042891	4.8120	0.20781	2580.7	2774.4	6.6092	1.9074	2.6742	500.41	30.307	14.917	0.035904
451.00	0.95418	889.29	0.0011245	752.49	753.57	2.1184	3.4036	4.3966	1397.6	-0.11658	152.06	0.67419	0.042669	4.9200	0.20325	2581.4	2775.3	6.6012	1.9139	2.6864	500.62	30.029	14.951	0.036076
452.00	0.97656	888.22	0.0011258	756.88	757.98	2.1281	3.3996	4.4004	1394.9	-0.11549	151.16	0.67379	0.042447	5.0300	0.19881	2582.1	2776.2	6.5932	1.9204	2.6986	500.82	29.753	14.986	0.036249
453.00	0.99936	887.16	0.0011272	761.26	762.39	2.1378	3.3955	4.4044	1392.1	-0.11438	150.27	0.67338	0.042224	5.1419	0.19448	2582.7	2777.1	6.5852	1.9269	2.7110	501.01	29.481	15.020	0.036423
454.00	1.0226	886.09	0.0011286	765.66	766.81	2.1475	3.3915	4.4084	1389.3	-0.11327	149.39	0.67297	0.042001	5.2558	0.19027	2583.4	2778.0	6.5773	1.9335	2.7235	501.20	29.212	15.055	0.036597
455.00	1.0462	885.01	0.0011299	770.05	771.23	2.1571	3.3875	4.4124	1386.5	-0.11214	148.52	0.67254	0.041777	5.3717	0.18616	2584.0	2778.8	6.5694	1.9402	2.7362	501.39	28.945	15.089	0.036773
456.00	1.0703	883.93	0.0011313	774.45	775.66	2.1668	3.3835	4.4165	1383.7	-0.11100	147.65	0.67211	0.041553	5.4897	0.18216	2584.7	2779.6	6.5615	1.9469	2.7490	501.57	28.681	15.124	0.036949
457.00	1.0948	882.85	0.0011327	778.85	780.09	2.1765	3.3796	4.4206	1380.8	-0.10984	146.80	0.67166	0.041329	5.6097	0.17826	2585.3	2780.5	6.5537	1.9536	2.7619	501.74	28.420	15.158	0.037126
458.00	1.1197	881.76	0.0011341	783.25	784.52	2.1861	3.3756	4.4248	1378.0	-0.10868	145.96	0.67121	0.041105	5.7319	0.17446	2585.9	2781.3	6.5458	1.9603	2.7749	501.92	28.161	15.192	0.037304
459.00	1.1451	880.67	0.0011355	787.66	788.96	2.1957	3.3717	4.4291	1375.1	-0.10750	145.13	0.67075	0.040880	5.8562	0.17076	2586.6	2782.1	6.5380	1.9671	2.7881	502.08	27.906	15.227	0.037483
460.00	1.1709	879.57	0.0011369	792.07	793.41	2.2053	3.3678	4.4334	1372.2	-0.10631	144.31	0.67028	0.040655	5.9826	0.16715	2587.2	2782.9	6.5303	1.9739	2.8014	502.24	27.653	15.261	0.037663
461.00	1.1972	878.47	0.0011383	796.49	797.85	2.2149	3.3639	4.4378	1369.2	-0.10511	143.50	0.66981	0.040430	6.1113	0.16363	2587.8	2783.7	6.5225	1.9808	2.8149	502.40	27.402	15.296	0.037844
462.00	1.2239	877.36	0.0011398	800.91	802.31	2.2245	3.3600	4.4422	1366.3	-0.10390	142.69	0.66932	0.040205	6.2421	0.16020	2588.4	2784.4	6.5148	1.9876	2.8285	502.55	27.155	15.330	0.038026
463.00	1.2511	876.24	0.0011412	805.34	806.76	2.2341	3.3561	4.4467	1363.3	-0.10267	141.90	0.66883	0.039979	6.3753	0.15686	2588.9	2785.2	6.5071	1.9946	2.8422	502.70	26.910	15.365	0.038208
464.00	1.2788	875.12	0.0011427	809.76	811.22	2.2436	3.3523	4.4513	1360.3	-0.10143	141.11	0.66832	0.039753	6.5107	0.15359	2589.5	2785.9	6.4994	2.0015	2.8561	502.85	26.667	15.399	0.038392
465.00	1.3069	874.00	0.0011442	814.20	815.69	2.2532	3.3485	4.4559	1357.3	-0.10017	140.34	0.66781	0.039527	6.6484	0.15041	2590.1	2786.6	6.4917	2.0085	2.8701	502.98	26.427	15.434	0.038576
466.00	1.3356	872.87	0.0011456	818.63	820.16	2.2627	3.3447	4.4606	1354.3	-0.098906	139.57	0.66729	0.039301	6.7884	0.14731	2590.6	2787.3	6.4841	2.0155	2.8842	503.12	26.190	15.468	0.038761
467.00	1.3647	871.74	0.0011471	823.07	824.64	2.2722	3.3409	4.4653	1351.2	-0.097624	138.81	0.66676	0.039074	6.9308	0.14428	2591.1	2788.0	6.4765	2.0226	2.8985	503.24	25.955	15.502	0.038947
468.00	1.3943	870.60	0.0011486	827.52	829.12	2.2817	3.3371	4.4701	1348.2	-0.096328	138.06	0.66623	0.038847	7.0757	0.14133	2591.7	2788.7	6.4689	2.0296	2.9129	503.37	25.723	15.537	0.039135
469.00	1.4245	869.46	0.0011501	831.97	833.60	2.2912	3.3333	4.4750	1345.1	-0.095018	137.32	0.66568	0.038620	7.2230	0.13845	2592.2	2789.4	6.4613	2.0367	2.9275	503.49	25.493	15.571	0.039323
470.00	1.4551	868.31	0.0011517	836.42	838.09	2.3007	3.3296	4.4799	1342.0	-0.093693	136.58	0.66512	0.038392	7.3727	0.13564	2592.7	2790.0	6.4538	2.0439	2.9422	503.60	25.265	15.606	0.039512
471.00	1.4862	867.16	0.0011532	840.88	842.59	2.3102	3.3259	4.4849	1338.8	-0.092353	135.85	0.66456	0.038165	7.5250	0.13289	2593.2	2790.7	6.4463	2.0511	2.9571	503.71	25.040	15.641	0.039702
472.00	1.5179	866.00	0.0011547	845.34	847.09	2.3197	3.3222	4.4899	1335.7	-0.090998	135.14	0.66399	0.037937	7.6798	0.13021	2593.7	2791.3	6.4388	2.0583	2.9721	503.81	24.817	15.675	0.039892
473.00	1.5501	864.83	0.0011563	849.80	851.60	2.3291	3.3185	4.4951	1332.5	-0.089628	134.42	0.66340	0.037709	7.8372	0.12760	2594.1	2791.9	6.4313	2.0655	2.9873	503.91	24.597	15.710	0.040084
474.00	1.5828	863.66	0.0011579	854.27	856.11	2.3386	3.3148	4.5003	1329.3	-0.088242	133.72	0.66281	0.037480	7.9972	0.12504	2594.6	2792.5	6.4238	2.0727	3.0026	504.00	24.379	15.744	0.040277
475.00	1.6160	862.49	0.0011594	858.75	860.62	2.3480	3.3112	4.5055	1326.1	-0.086840	133.02	0.66221	0.037252	8.1598	0.12255	2595.0	2793.1	6.4164	2.0800	3.0181	504.09	24.163	15.779	0.040471
476.00	1.6498	861.31	0.0011610	863.23	865.14	2.3574	3.3075	4.5109	1322.9	-0.085422	132.33	0.66160	0.037023	8.3251	0.12012	2595.5	2793.7	6.4089	2.0874	3.0337	504.17	23.949	15.813	0.040666
477.00	1.6841	860.12	0.0011626	867.71	869.67	2.3668	3.3039	4.5163	1319.7	-0.083988	131.65	0.66098	0.036794	8.4931	0.11774	2595.9	2794.2	6.4015	2.0947	3.0495	504.25	23.738	15.848	0.040861
478.00	1.7190	858.93	0.0011642	872.20	874.20	2.3762	3.3003	4.5218	1316.4	-0.082538	130.98	0.66035	0.036565	8.6639	0.11542	2596.3	2794.7	6.3941	2.1021	3.0655	504.32	23.529	15.883	0.041058
479.00	1.7545	857.74	0.0011659	876.69	878.74	2.3856	3.2967	4.5273	1313.1	-0.081070	130.31	0.65971	0.036335	8.8375	0.11315	2596.7	2795.3	6.3868	2.1095	3.0816	504.39	23.322	15.917	0.041256
480.00	1.7905	856.54	0.0011675	881.19	883.28	2.3950	3.2932	4.5330	1309.8	-0.079585	129.64	0.65907	0.036105	9.0139	0.11094	2597.1	2795.8	6.3794	2.1169	3.0979	504.45	23.118	15.952	0.041455
481.00	1.8271	855.33	0.0011691	885.70	887.83	2.4044	3.2896	4.5387	1306.5	-0.078083	128.99	0.65841	0.035876	9.1932	0.10878	2597.5	2796.3	6.3721	2.1244	3.1143	504.51	22.915	15.987	0.041654
482.00	1.8642	854.12	0.0011708	890.20	892.39	2.4138	3.2861	4.5445	1303.1	-0.076563	128.34	0.65774	0.035645	9.3753	0.10666	2597.9	2796.7	6.3647	2.1319	3.1310	504.56	22.715	16.021	0.041855
483.00	1.9020	852.90	0.0011725	894.72	896.95	2.4231	3.2826	4.5503	1299.8	-0.075024	127.70	0.65707	0.035415	9.5604	0.10460	2598.3	2797.2	6.3574	2.1394	3.1478	504.61	22.517	16.056	0.042057
484.00	1.9403	851.68	0.0011742	899.23	901.51	2.4325	3.2791	4.5563	1296.4	-0.073468	127.06	0.65638	0.035185	9.7485	0.10258	2598.6	2797.6	6.3501	2.1469	3.1648	504.65	22.321	16.091	0.042260
485.00	1.9792	850.45	0.0011758	903.76	906.09	2.4418	3.2756	4.5623	1293.0	-0.071893	126.43	0.65569	0.034954	9.9397	0.10061	2598.9	2798.1	6.3428	2.1545	3.1819	504.68	22.127	16.126	0.042464
486.00	2.0188	849.21	0.0011776	908.29	910.66	2.4512	3.2721	4.5684	1289.6	-0.070298	125.81	0.65498	0.034723	10.134	0.098679	2599.3	2798.5	6.3356	2.1621	3.1993	504.71	21.935	16.161	0.042670
487.00	2.0589	847.97	0.0011793	912.82	915.25	2.4605	3.2687	4.5746	1286.1	-0.068685	125.19	0.65427	0.034492	10.331	0.096795	2599.6	2798.9	6.3283	2.1697	3.2168	504.74	21.745	16.195	0.042876
488.00	2.0997	846.73	0.0011810	917.36	919.84	2.4698	3.2652	4.5809	1282.6	-0.067051	124.58	0.65354	0.034261	10.532	0.094952	2599.9	2799.3	6.3211	2.1774	3.2345	504.76	21.557	16.230	0.043083
489.00	2.1411	845.48	0.0011828	921.90	924.43	2.4791	3.2618	4.5872	1279.2	-0.065398	123.97	0.65281	0.034029	10.735	0.093151	2600.2	2799.6	6.3139	2.1851	3.2524	504.77	21.371	16.265	0.043292
490.00	2.1831	844.22	0.0011845	926.45	929.04	2.4884	3.2584	4.5937	1275.7	-0.063724	123.37	0.65206	0.033797	10.942	0.091390	2600.5	2800.0	6.3066	2.1928	3.2705	504.78	21.187	16.300	0.043502
491.00	2.2257	842.96	0.0011863	931.01	933.65	2.4977	3.2551	4.6002	1272.1	-0.062030	122.78	0.65131	0.033566	11.152	0.089668	2600.7	2800.3	6.2994	2.2005	3.2888	504.78	21.005	16.335	0.043712
492.00	2.2690	841.69	0.0011881	935.57	938.26	2.5070	3.2517	4.6069	1268.6	-0.060314	122.19	0.65054	0.033334	11.366	0.087984	2601.0	2800.6	6.2923	2.2083	3.3073	504.78	20.825	16.370	0.043924
493.00	2.3129	840.41	0.0011899	940.13	942.88	2.5163	3.2484	4.6136	1265.0	-0.058577	121.60	0.64977	0.033101	11.583	0.086336	2601.2	2800.9	6.2851	2.2161	3.3260	504.77	20.647	16.406	0.044138
494.00	2.3575	839.13	0.0011917	944.70	947.51	2.5256	3.2451	4.6204	1261.5	-0.056818	121.02	0.64898	0.032869	11.803	0.084725	2601.4	2801.2	6.2779	2.2239	3.3450	504.76	20.470	16.441	0.044352
495.00	2.4028	837.84	0.0011935	949.28	952.15	2.5348	3.2418	4.6274	1257.9	-0.055036	120.45	0.64819	0.032637	12.027	0.083149	2601.7	2801.4	6.2708	2.2317	3.3641	504.74	20.296	16.476	0.044568
496.00	2.4487	836.55	0.0011954	953.86	956.79	2.5441	3.2385	4.6344	1254.2	-0.053232	119.88	0.64738	0.032404	12.254	0.081607	2601.9	2801.7	6.2636	2.2396	3.3834	504.71	20.123	16.511	0.044785
497.00	2.4953	835.25	0.0011972	958.45	961.44	2.5533	3.2352	4.6415	1250.6	-0.051405	119.32	0.64656	0.032171	12.485	0.080098	2602.0	2801.9	6.2565	2.2475	3.4030	504.68	19.952	16.546	0.045003
498.00	2.5426	833.94	0.0011991	963.05	966.10	2.5626	3.2320	4.6487	1246.9	-0.049554	118.76	0.64574	0.031938	12.719	0.078622	2602.2	2802.1	6.2494	2.2555	3.4228	504.64	19.783	16.582	0.045223
499.00	2.5905	832.63	0.0012010	967.65	970.76	2.5718	3.2287	4.6560	1243.3	-0.047680	118.21	0.64490	0.031705	12.957	0.077178	2602.4	2802.3	6.2422	2.2634	3.4428	504.60	19.616	16.617	0.045444
500.00	2.6392	831.31	0.0012029	972.26	975.43	2.5810	3.2255	4.6635	1239.6	-0.045781	117.66	0.64405	0.031472	13.199	0.075764	2602.5	2802.5	6.2351	2.2714	3.4631	504.55	19.450	16.653	0.045666
501.00	2.6886	829.99	0.0012048	976.87	980.11	2.5903	3.2223	4.6710	1235.8	-0.043857	117.12	0.64319	0.031239	13.444	0.074380	2602.7	2802.6	6.2280	2.2794	3.4836	504.49	19.286	16.688	0.045890
502.00	2.7386	828.66	0.0012068	981.49	984.79	2.5995	3.2191	4.6786	1232.1	-0.041908	116.58	0.64232	0.031005	13.694	0.073026	2602.8	2802.8	6.2210	2.2875	3.5043	504.43	19.124	16.724	0.046115
503.00	2.7894	827.32	0.0012087	986.11	989.49	2.6087	3.2160	4.6864	1228.3	-0.039933	116.04	0.64144	0.030771	13.947	0.071700	2602.9	2802.9	6.2139	2.2956	3.5253	504.36	18.964	16.759	0.046341
504.00	2.8409	825.98	0.0012107	990.75	994.18	2.6179	3.2129	4.6943	1224.6	-0.037931	115.51	0.64055	0.030538	14.204	0.070402	2603.0	2803.0	6.2068	2.3037	3.5465	504.29	18.805	16.795	0.046569
505.00	2.8931	824.63	0.0012127	995.38	998.89	2.6271	3.2097	4.7022	1220.8	-0.035903	114.98	0.63964	0.030304	14.465	0.069131	2603.0	2803.1	6.1997	2.3118	3.5680	504.21	18.648	16.831	0.046799
506.00	2.9461	823.27	0.0012147	1000.0	1003.6	2.6363	3.2066	4.7103	1216.9	-0.033848	114.46	0.63873	0.030070	14.730	0.067887	2603.1	2803.1	6.1927	2.3200	3.5898	504.12	18.492	16.867	0.047030
507.00	2.9998	821.90	0.0012167	1004.7	1008.3	2.6455	3.2036	4.7186	1213.1	-0.031765	113.95	0.63780	0.029836	15.000	0.066668	2603.2	2803.2	6.1856	2.3282	3.6118	504.03	18.339	16.902	0.047262
508.00	3.0543	820.53	0.0012187	1009.3	1013.1	2.6547	3.2005	4.7269	1209.2	-0.029653	113.43	0.63686	0.029602	15.273	0.065475	2603.2	2803.2	6.1786	2.3365	3.6342	503.93	18.186	16.938	0.047496
509.00	3.1095	819.16	0.0012208	1014.0	1017.8	2.6639	3.1975	4.7354	1205.4	-0.027513	112.92	0.63591	0.029367	15.551	0.064306	2603.2	2803.2	6.1715	2.3447	3.6567	503.82	18.036	16.974	0.047732
510.00	3.1655	817.77	0.0012228	1018.7	1022.5	2.6731	3.1944	4.7440	1201.5	-0.025343	112.42	0.63495	0.029133	15.833	0.063161	2603.2	2803.2	6.1645	2.3530	3.6796	503.71	17.886	17.011	0.047969
511.00	3.2223	816.38	0.0012249	1023.4	1027.3	2.6823	3.1914	4.7527	1197.5	-0.023143	111.92	0.63398	0.028898	16.119	0.062040	2603.2	2803.1	6.1574	2.3614	3.7028	503.59	17.739	17.047	0.048208
512.00	3.2798	814.98	0.0012270	1028.0	1032.1	2.6914	3.1884	4.7616	1193.6	-0.020912	111.42	0.63300	0.028664	16.409	0.060941	2603.2	2803.1	6.1504	2.3697	3.7263	503.47	17.592	17.083	0.048449
513.00	3.3381	813.58	0.0012291	1032.7	1036.8	2.7006	3.1855	4.7705	1189.6	-0.018650	110.92	0.63200	0.028429	16.704	0.059865	2603.1	2803.0	6.1434	2.3781	3.7501	503.34	17.448	17.119	0.048691
514.00	3.3972	812.16	0.0012313	1037.4	1041.6	2.7098	3.1825	4.7797	1185.6	-0.016356	110.43	0.63099	0.028194	17.004	0.058810	2603.1	2802.9	6.1363	2.3866	3.7742	503.20	17.304	17.156	0.048936
515.00	3.4571	810.74	0.0012334	1042.1	1046.4	2.7189	3.1796	4.7889	1181.6	-0.014030	109.95	0.62997	0.027959	17.308	0.057776	2603.0	2802.7	6.1293	2.3951	3.7986	503.06	17.163	17.193	0.049182
516.00	3.5179	809.32	0.0012356	1046.9	1051.2	2.7281	3.1767	4.7984	1177.6	-0.011671	109.47	0.62894	0.027724	17.617	0.056764	2602.9	2802.6	6.1223	2.4036	3.8233	502.90	17.022	17.229	0.049430
517.00	3.5794	807.88	0.0012378	1051.6	1056.0	2.7373	3.1738	4.8079	1173.6	-0.0092772	108.99	0.62789	0.027489	17.930	0.055771	2602.8	2802.4	6.1153	2.4121	3.8484	502.75	16.883	17.266	0.049680
518.00	3.6417	806.44	0.0012400	1056.3	1060.8	2.7464	3.1709	4.8176	1169.5	-0.0068493	108.51	0.62684	0.027254	18.249	0.054798	2602.7	2802.2	6.1082	2.4207	3.8738	502.58	16.746	17.303	0.049932
519.00	3.7049	804.99	0.0012422	1061.0	1065.6	2.7556	3.1681	4.8275	1165.4	-0.0043860	108.04	0.62577	0.027019	18.572	0.053845	2602.5	2802.0	6.1012	2.4293	3.8996	502.41	16.610	17.340	0.050186
520.00	3.7690	803.53	0.0012445	1065.8	1070.5	2.7647	3.1653	4.8375	1161.3	-0.0018868	107.57	0.62468	0.026784	18.900	0.052910	2602.4	2801.8	6.0942	2.4380	3.9257	502.23	16.475	17.377	0.050442
521.00	3.8338	802.07	0.0012468	1070.5	1075.3	2.7739	3.1625	4.8477	1157.2	0.00064928	107.10	0.62359	0.026549	19.233	0.051993	2602.2	2801.6	6.0872	2.4466	3.9523	502.05	16.341	17.414	0.050700
522.00	3.8995	800.60	0.0012491	1075.3	1080.2	2.7830	3.1597	4.8580	1153.0	0.0032229	106.64	0.62248	0.026314	19.571	0.051095	2602.0	2801.3	6.0801	2.4554	3.9791	501.85	16.209	17.451	0.050961
523.00	3.9661	799.12	0.0012514	1080.1	1085.0	2.7922	3.1569	4.8685	1148.9	0.0058348	106.18	0.62136	0.026078	19.915	0.050214	2601.8	2801.0	6.0731	2.4641	4.0064	501.65	16.078	17.489	0.051223
524.00	4.0336	797.63	0.0012537	1084.9	1089.9	2.8013	3.1542	4.8792	1144.7	0.0084859	105.73	0.62023	0.025843	20.264	0.049350	2601.6	2800.7	6.0661	2.4730	4.0341	501.45	15.948	17.527	0.051488
525.00	4.1019	796.13	0.0012561	1089.6	1094.8	2.8104	3.1515	4.8901	1140.5	0.011177	105.27	0.61908	0.025608	20.617	0.048503	2601.4	2800.3	6.0591	2.4818	4.0622	501.23	15.820	17.564	0.051756
526.00	4.1711	794.63	0.0012585	1094.4	1099.7	2.8196	3.1488	4.9011	1136.2	0.013909	104.82	0.61792	0.025372	20.977	0.047672	2601.1	2799.9	6.0520	2.4907	4.0907	501.01	15.693	17.602	0.052025
527.00	4.2412	793.12	0.0012609	1099.2	1104.6	2.8287	3.1461	4.9123	1132.0	0.016683	104.37	0.61675	0.025137	21.342	0.046857	2600.8	2799.6	6.0450	2.4996	4.1196	500.78	15.567	17.640	0.052298
528.00	4.3122	791.59	0.0012633	1104.0	1109.5	2.8379	3.1434	4.9237	1127.7	0.019499	103.93	0.61556	0.024901	21.712	0.046057	2600.5	2799.1	6.0379	2.5086	4.1490	500.54	15.442	17.678	0.052573
529.00	4.3841	790.06	0.0012657	1108.9	1114.4	2.8470	3.1408	4.9353	1123.4	0.022359	103.49	0.61436	0.024666	22.088	0.045273	2600.2	2798.7	6.0309	2.5176	4.1788	500.30	15.319	17.716	0.052850
530.00	4.4569	788.53	0.0012682	1113.7	1119.3	2.8561	3.1382	4.9471	1119.1	0.025264	103.05	0.61315	0.024430	22.470	0.044503	2599.9	2798.2	6.0239	2.5267	4.2090	500.05	15.197	17.755	0.053130
531.00	4.5306	786.98	0.0012707	1118.5	1124.3	2.8653	3.1356	4.9591	1114.7	0.028215	102.61	0.61192	0.024195	22.858	0.043749	2599.5	2797.7	6.0168	2.5358	4.2398	499.79	15.075	17.793	0.053413
532.00	4.6052	785.43	0.0012732	1123.4	1129.2	2.8744	3.1331	4.9713	1110.4	0.031212	102.18	0.61068	0.023960	23.252	0.043008	2599.2	2797.2	6.0097	2.5449	4.2710	499.52	14.955	17.832	0.053699
533.00	4.6808	783.86	0.0012757	1128.2	1134.2	2.8836	3.1305	4.9837	1106.0	0.034256	101.75	0.60943	0.023724	23.651	0.042281	2598.8	2796.7	6.0027	2.5541	4.3027	499.25	14.837	17.871	0.053988
534.00	4.7574	782.29	0.0012783	1133.1	1139.2	2.8927	3.1280	4.9964	1101.6	0.037350	101.32	0.60816	0.023489	24.057	0.041568	2598.4	2796.1	5.9956	2.5634	4.3350	498.97	14.719	17.910	0.054280
535.00	4.8349	780.71	0.0012809	1138.0	1144.2	2.9019	3.1255	5.0092	1097.1	0.040493	100.89	0.60688	0.023253	24.469	0.040868	2597.9	2795.5	5.9885	2.5726	4.3677	498.68	14.602	17.949	0.054575
536.00	4.9133	779.12	0.0012835	1142.9	1149.2	2.9110	3.1231	5.0223	1092.7	0.043688	100.47	0.60558	0.023018	24.887	0.040181	2597.5	2794.9	5.9814	2.5820	4.4011	498.38	14.487	17.989	0.054874
537.00	4.9927	777.51	0.0012861	1147.8	1154.2	2.9202	3.1206	5.0356	1088.2	0.046935	100.04	0.60427	0.022783	25.312	0.039506	2597.0	2794.3	5.9743	2.5914	4.4349	498.07	14.372	18.028	0.055176
538.00	5.0731	775.90	0.0012888	1152.7	1159.2	2.9293	3.1182	5.0492	1083.7	0.050235	99.624	0.60295	0.022547	25.744	0.038844	2596.5	2793.6	5.9672	2.6008	4.4693	497.76	14.259	18.068	0.055481
539.00	5.1545	774.29	0.0012915	1157.6	1164.2	2.9385	3.1158	5.0630	1079.2	0.053591	99.207	0.60161	0.022312	26.182	0.038195	2596.0	2792.9	5.9601	2.6103	4.5043	497.43	14.146	18.108	0.055789
540.00	5.2369	772.66	0.0012942	1162.5	1169.3	2.9476	3.1134	5.0770	1074.6	0.057002	98.792	0.60026	0.022077	26.627	0.037556	2595.5	2792.2	5.9530	2.6198	4.5400	497.10	14.035	18.149	0.056102
541.00	5.3203	771.02	0.0012970	1167.4	1174.3	2.9568	3.1111	5.0913	1070.1	0.060471	98.378	0.59890	0.021842	27.078	0.036930	2594.9	2791.4	5.9458	2.6294	4.5762	496.76	13.924	18.189	0.056418
542.00	5.4047	769.37	0.0012998	1172.4	1179.4	2.9660	3.1088	5.1059	1065.5	0.063999	97.967	0.59752	0.021607	27.537	0.036315	2594.4	2790.6	5.9387	2.6390	4.6131	496.41	13.815	18.230	0.056738
543.00	5.4901	767.71	0.0013026	1177.4	1184.5	2.9751	3.1065	5.1208	1060.9	0.067587	97.558	0.59612	0.021372	28.003	0.035711	2593.8	2789.8	5.9315	2.6487	4.6506	496.06	13.706	18.270	0.057062
544.00	5.5765	766.04	0.0013054	1182.3	1189.6	2.9843	3.1042	5.1359	1056.2	0.071237	97.151	0.59471	0.021137	28.476	0.035117	2593.1	2789.0	5.9243	2.6585	4.6888	495.69	13.599	18.312	0.057391
545.00	5.6640	764.36	0.0013083	1187.3	1194.7	2.9935	3.1020	5.1513	1051.6	0.074951	96.746	0.59329	0.020902	28.956	0.034535	2592.5	2788.1	5.9171	2.6683	4.7277	495.32	13.492	18.353	0.057723
546.00	5.7525	762.67	0.0013112	1192.3	1199.8	3.0026	3.0998	5.1670	1046.9	0.078729	96.342	0.59185	0.020668	29.444	0.033962	2591.8	2787.2	5.9099	2.6781	4.7672	494.93	13.387	18.394	0.058060
547.00	5.8421	760.97	0.0013141	1197.3	1205.0	3.0118	3.0976	5.1831	1042.1	0.082574	95.941	0.59040	0.020433	29.940	0.033400	2591.2	2786.3	5.9027	2.6880	4.8076	494.54	13.282	18.436	0.058402
548.00	5.9327	759.26	0.0013171	1202.3	1210.1	3.0210	3.0955	5.1994	1037.4	0.086488	95.541	0.58893	0.020199	30.443	0.032848	2590.4	2785.3	5.8955	2.6980	4.8487	494.14	13.178	18.478	0.058748
549.00	6.0244	757.54	0.0013201	1207.3	1215.3	3.0302	3.0934	5.2161	1032.6	0.090472	95.142	0.58745	0.019964	30.955	0.032305	2589.7	2784.3	5.8882	2.7080	4.8905	493.73	13.075	18.521	0.059100
550.00	6.1172	755.81	0.0013231	1212.4	1220.5	3.0394	3.0913	5.2331	1027.9	0.094527	94.746	0.58595	0.019730	31.474	0.031772	2588.9	2783.3	5.8809	2.7181	4.9332	493.31	12.973	18.563	0.059456
551.00	6.2110	754.06	0.0013261	1217.4	1225.7	3.0486	3.0892	5.2504	1023.0	0.098657	94.351	0.58444	0.019496	32.002	0.031248	2588.2	2782.2	5.8736	2.7283	4.9767	492.88	12.872	18.606	0.059818
552.00	6.3060	752.31	0.0013292	1222.5	1230.9	3.0579	3.0872	5.2681	1018.2	0.10286	93.957	0.58292	0.019262	32.538	0.030734	2587.4	2781.2	5.8663	2.7385	5.0210	492.44	12.771	18.650	0.060185
553.00	6.4021	750.54	0.0013324	1227.6	1236.1	3.0671	3.0852	5.2862	1013.3	0.10715	93.565	0.58138	0.019028	33.082	0.030228	2586.5	2780.0	5.8590	2.7488	5.0662	491.99	12.672	18.693	0.060558
554.00	6.4993	748.76	0.0013355	1232.7	1241.3	3.0763	3.0833	5.3046	1008.4	0.11151	93.174	0.57983	0.018794	33.635	0.029731	2585.7	2778.9	5.8517	2.7591	5.1124	491.54	12.573	18.737	0.060936
555.00	6.5976	746.97	0.0013387	1237.8	1246.6	3.0855	3.0813	5.3235	1003.5	0.11595	92.785	0.57826	0.018561	34.198	0.029242	2584.8	2777.7	5.8443	2.7695	5.1594	491.07	12.475	18.781	0.061321
556.00	6.6970	745.17	0.0013420	1242.9	1251.9	3.0948	3.0794	5.3427	998.58	0.12048	92.397	0.57668	0.018327	34.769	0.028762	2583.9	2776.5	5.8369	2.7800	5.2075	490.59	12.378	18.826	0.061711
557.00	6.7976	743.35	0.0013453	1248.0	1257.2	3.1041	3.0776	5.3623	993.61	0.12510	92.010	0.57508	0.018094	35.349	0.028289	2582.9	2775.2	5.8295	2.7905	5.2565	490.10	12.282	18.870	0.062109
558.00	6.8993	741.53	0.0013486	1253.1	1262.5	3.1133	3.0757	5.3824	988.61	0.12981	91.625	0.57347	0.017861	35.939	0.027825	2582.0	2773.9	5.8221	2.8011	5.3066	489.60	12.186	18.915	0.062512
559.00	7.0022	739.68	0.0013519	1258.3	1267.8	3.1226	3.0740	5.4029	983.59	0.13460	91.241	0.57185	0.017628	36.538	0.027369	2581.0	2772.6	5.8146	2.8118	5.3577	489.10	12.091	18.961	0.062923
560.00	7.1062	737.83	0.0013553	1263.5	1273.1	3.1319	3.0722	5.4239	978.54	0.13949	90.857	0.57021	0.017396	37.147	0.026920	2579.9	2771.2	5.8071	2.8225	5.4099	488.58	11.997	19.007	0.063341
561.00	7.2115	735.96	0.0013588	1268.7	1278.5	3.1412	3.0705	5.4453	973.46	0.14448	90.475	0.56856	0.017163	37.766	0.026479	2578.9	2769.8	5.7996	2.8333	5.4633	488.05	11.903	19.053	0.063767
562.00	7.3179	734.08	0.0013622	1273.9	1283.8	3.1505	3.0688	5.4673	968.35	0.14957	90.094	0.56689	0.016931	38.395	0.026045	2577.8	2768.4	5.7921	2.8442	5.5178	487.51	11.811	19.100	0.064200
563.00	7.4255	732.19	0.0013658	1279.1	1289.2	3.1598	3.0672	5.4897	963.21	0.15476	89.714	0.56521	0.016699	39.035	0.025618	2576.7	2766.9	5.7845	2.8551	5.5736	486.96	11.719	19.147	0.064641
564.00	7.5344	730.28	0.0013693	1284.3	1294.6	3.1691	3.0656	5.5126	958.05	0.16006	89.335	0.56352	0.016467	39.685	0.025199	2575.6	2765.4	5.7769	2.8662	5.6306	486.40	11.627	19.194	0.065091
565.00	7.6444	728.36	0.0013729	1289.6	1300.1	3.1785	3.0640	5.5361	952.85	0.16546	88.956	0.56181	0.016236	40.346	0.024786	2574.4	2763.9	5.7693	2.8773	5.6889	485.83	11.537	19.242	0.065549
566.00	7.7557	726.42	0.0013766	1294.8	1305.5	3.1878	3.0625	5.5602	947.63	0.17098	88.578	0.56009	0.016005	41.018	0.024380	2573.2	2762.3	5.7616	2.8885	5.7486	485.24	11.447	19.291	0.066016
567.00	7.8682	724.47	0.0013803	1300.1	1311.0	3.1972	3.0610	5.5848	942.38	0.17662	88.201	0.55836	0.015774	41.701	0.023980	2571.9	2760.6	5.7539	2.8997	5.8097	484.65	11.357	19.340	0.066493
568.00	7.9819	722.51	0.0013841	1305.4	1316.4	3.2066	3.0596	5.6100	937.09	0.18237	87.825	0.55661	0.015543	42.396	0.023587	2570.7	2759.0	5.7462	2.9110	5.8723	484.04	11.269	19.389	0.066979
569.00	8.0970	720.53	0.0013879	1310.7	1321.9	3.2160	3.0582	5.6359	931.78	0.18824	87.450	0.55485	0.015313	43.103	0.023200	2569.4	2757.2	5.7385	2.9225	5.9364	483.42	11.181	19.439	0.067475
570.00	8.2132	718.53	0.0013917	1316.0	1327.5	3.2254	3.0569	5.6624	926.44	0.19425	87.074	0.55308	0.015082	43.822	0.022820	2568.0	2755.5	5.7307	2.9340	6.0020	482.79	11.093	19.489	0.067981
571.00	8.3308	716.52	0.0013956	1321.4	1333.0	3.2348	3.0556	5.6896	921.06	0.20038	86.700	0.55130	0.014853	44.553	0.022445	2566.7	2753.7	5.7228	2.9456	6.0693	482.15	11.006	19.540	0.068499
572.00	8.4496	714.49	0.0013996	1326.8	1338.6	3.2443	3.0544	5.7175	915.66	0.20665	86.326	0.54950	0.014623	45.297	0.022077	2565.3	2751.8	5.7150	2.9572	6.1382	481.50	10.920	19.591	0.069027
573.00	8.5698	712.44	0.0014036	1332.1	1344.2	3.2537	3.0532	5.7460	910.22	0.21305	85.952	0.54770	0.014394	46.053	0.021714	2563.8	2749.9	5.7071	2.9690	6.2089	480.83	10.834	19.643	0.069568
574.00	8.6912	710.38	0.0014077	1337.5	1349.8	3.2632	3.0520	5.7754	904.75	0.21960	85.579	0.54588	0.014165	46.823	0.021357	2562.4	2748.0	5.6991	2.9808	6.2815	480.15	10.749	19.696	0.070120
575.00	8.8140	708.30	0.0014118	1343.0	1355.4	3.2727	3.0510	5.8055	899.25	0.22630	85.206	0.54405	0.013937	47.607	0.021005	2560.9	2746.0	5.6912	2.9928	6.3560	479.46	10.664	19.749	0.070685
576.00	8.9381	706.21	0.0014160	1348.4	1361.1	3.2823	3.0499	5.8365	893.71	0.23315	84.833	0.54221	0.013708	48.404	0.020659	2559.3	2744.0	5.6831	3.0048	6.4324	478.75	10.580	19.803	0.071264
577.00	9.0635	704.09	0.0014203	1353.9	1366.7	3.2918	3.0489	5.8683	888.14	0.24016	84.460	0.54036	0.013481	49.215	0.020319	2557.7	2741.9	5.6751	3.0169	6.5109	478.04	10.496	19.857	0.071856
578.00	9.1903	701.96	0.0014246	1359.4	1372.4	3.3014	3.0480	5.9010	882.54	0.24734	84.088	0.53849	0.013253	50.042	0.019983	2556.1	2739.8	5.6669	3.0291	6.5916	477.31	10.413	19.912	0.072462
579.00	9.3184	699.81	0.0014290	1364.9	1378.2	3.3109	3.0472	5.9346	876.90	0.25468	83.715	0.53662	0.013026	50.883	0.019653	2554.4	2737.6	5.6588	3.0415	6.6745	476.56	10.331	19.968	0.073084
580.00	9.4480	697.64	0.0014334	1370.4	1383.9	3.3205	3.0464	5.9691	871.23	0.26220	83.342	0.53474	0.012800	51.739	0.019328	2552.7	2735.3	5.6506	3.0539	6.7598	475.80	10.248	20.024	0.073721
581.00	9.5789	695.45	0.0014379	1375.9	1389.7	3.3302	3.0456	6.0047	865.53	0.26990	82.970	0.53285	0.012574	52.611	0.019007	2551.0	2733.0	5.6423	3.0664	6.8475	475.03	10.167	20.082	0.074374
582.00	9.7112	693.24	0.0014425	1381.5	1395.5	3.3398	3.0450	6.0413	859.78	0.27779	82.597	0.53094	0.012348	53.499	0.018692	2549.2	2730.7	5.6340	3.0790	6.9378	474.24	10.085	20.140	0.075044
583.00	9.8449	691.01	0.0014472	1387.1	1401.3	3.3495	3.0444	6.0790	854.00	0.28588	82.224	0.52903	0.012123	54.404	0.018381	2547.4	2728.3	5.6256	3.0918	7.0307	473.44	10.005	20.198	0.075731
584.00	9.9800	688.76	0.0014519	1392.7	1407.2	3.3592	3.0439	6.1179	848.19	0.29416	81.850	0.52711	0.011898	55.326	0.018075	2545.5	2725.9	5.6172	3.1046	7.1265	472.63	9.9242	20.258	0.076437
585.00	10.117	686.48	0.0014567	1398.4	1413.1	3.3690	3.0434	6.1579	842.34	0.30266	81.477	0.52519	0.011673	56.265	0.017773	2543.5	2723.3	5.6087	3.1175	7.2252	471.80	9.8442	20.318	0.077163
586.00	10.255	684.19	0.0014616	1404.0	1419.0	3.3787	3.0430	6.1993	836.44	0.31137	81.103	0.52325	0.011449	57.222	0.017476	2541.6	2720.8	5.6002	3.1306	7.3269	470.95	9.7646	20.379	0.077908
587.00	10.394	681.87	0.0014665	1409.7	1425.0	3.3885	3.0427	6.2419	830.52	0.32031	80.728	0.52131	0.011226	58.198	0.017183	2539.6	2718.2	5.5916	3.1438	7.4319	470.09	9.6854	20.442	0.078674
588.00	10.535	679.53	0.0014716	1415.4	1430.9	3.3983	3.0425	6.2859	824.55	0.32948	80.353	0.51935	0.011003	59.193	0.016894	2537.5	2715.5	5.5829	3.1571	7.5403	469.21	9.6066	20.505	0.079462
589.00	10.677	677.17	0.0014767	1421.2	1436.9	3.4082	3.0424	6.3314	818.54	0.33890	79.977	0.51740	0.010781	60.207	0.016609	2535.4	2712.7	5.5742	3.1705	7.6522	468.32	9.5281	20.569	0.080273
590.00	10.821	674.78	0.0014820	1426.9	1443.0	3.4181	3.0423	6.3784	812.49	0.34857	79.600	0.51543	0.010559	61.242	0.016329	2533.2	2709.9	5.5654	3.1840	7.7679	467.41	9.4499	20.634	0.081108
591.00	10.967	672.37	0.0014873	1432.7	1449.0	3.4280	3.0424	6.4270	806.40	0.35850	79.223	0.51346	0.010338	62.297	0.016052	2531.0	2707.0	5.5565	3.1977	7.8875	466.48	9.3721	20.700	0.081968
592.00	11.113	669.93	0.0014927	1438.6	1455.2	3.4379	3.0425	6.4773	800.26	0.36870	78.844	0.51148	0.010117	63.373	0.015780	2528.7	2704.1	5.5476	3.2115	8.0112	465.54	9.2946	20.767	0.082854
593.00	11.262	667.47	0.0014982	1444.4	1461.3	3.4479	3.0427	6.5294	794.09	0.37919	78.465	0.50950	0.0098973	64.472	0.015511	2526.4	2701.0	5.5386	3.2255	8.1393	464.58	9.2174	20.836	0.083767
594.00	11.412	664.97	0.0015038	1450.3	1467.5	3.4580	3.0431	6.5833	787.87	0.38998	78.084	0.50751	0.0096779	65.593	0.015246	2524.0	2698.0	5.5295	3.2395	8.2720	463.60	9.1404	20.905	0.084709
595.00	11.563	662.45	0.0015095	1456.2	1473.7	3.4680	3.0435	6.6393	781.60	0.40108	77.703	0.50551	0.0094591	66.738	0.014984	2521.5	2694.8	5.5203	3.2537	8.4096	462.60	9.0638	20.976	0.085682
596.00	11.716	659.91	0.0015154	1462.2	1479.9	3.4781	3.0441	6.6973	775.29	0.41250	77.320	0.50351	0.0092410	67.907	0.014726	2519.0	2691.6	5.5110	3.2681	8.5523	461.59	8.9873	21.048	0.086686
597.00	11.871	657.33	0.0015213	1468.2	1486.2	3.4883	3.0447	6.7576	768.93	0.42426	76.936	0.50151	0.0090236	69.101	0.014472	2516.4	2688.2	5.5017	3.2826	8.7004	460.55	8.9111	21.121	0.087723
598.00	12.027	654.72	0.0015274	1474.2	1492.6	3.4985	3.0455	6.8202	762.53	0.43637	76.550	0.49950	0.0088069	70.321	0.014221	2513.8	2684.8	5.4923	3.2973	8.8543	459.50	8.8351	21.196	0.088795
599.00	12.185	652.08	0.0015335	1480.3	1498.9	3.5087	3.0464	6.8854	756.07	0.44885	76.162	0.49748	0.0085909	71.568	0.013973	2511.1	2681.4	5.4827	3.3121	9.0144	458.42	8.7593	21.273	0.089904
600.00	12.345	649.41	0.0015399	1486.4	1505.4	3.5190	3.0475	6.9532	749.57	0.46172	75.773	0.49546	0.0083756	72.842	0.013728	2508.3	2677.8	5.4731	3.3271	9.1809	457.33	8.6837	21.350	0.091052
601.00	12.506	646.71	0.0015463	1492.5	1511.8	3.5294	3.0487	7.0239	743.01	0.47499	75.382	0.49344	0.0081611	74.146	0.013487	2505.5	2674.2	5.4634	3.3423	9.3543	456.21	8.6082	21.430	0.092240
602.00	12.669	643.97	0.0015529	1498.7	1518.3	3.5398	3.0500	7.0976	736.39	0.48869	74.990	0.49141	0.0079474	75.479	0.013249	2502.6	2670.4	5.4536	3.3576	9.5350	455.07	8.5329	21.511	0.093470
603.00	12.833	641.19	0.0015596	1504.9	1524.9	3.5502	3.0515	7.1745	729.72	0.50283	74.595	0.48938	0.0077345	76.843	0.013014	2499.6	2666.6	5.4437	3.3732	9.7236	453.91	8.4577	21.594	0.094746
604.00	12.999	638.38	0.0015665	1511.1	1531.5	3.5607	3.0532	7.2549	722.99	0.51745	74.198	0.48734	0.0075224	78.239	0.012781	2496.5	2662.7	5.4336	3.3889	9.9206	452.73	8.3826	21.678	0.096069
605.00	13.167	635.53	0.0015735	1517.4	1538.1	3.5713	3.0551	7.3391	716.21	0.53256	73.798	0.48530	0.0073112	79.669	0.012552	2493.4	2658.7	5.4234	3.4048	10.127	451.52	8.3076	21.765	0.097442
606.00	13.337	632.64	0.0015807	1523.8	1544.8	3.5819	3.0571	7.4272	709.36	0.54820	73.396	0.48326	0.0071008	81.134	0.012325	2490.2	2654.6	5.4132	3.4209	10.342	450.29	8.2326	21.853	0.098868
607.00	13.508	629.71	0.0015880	1530.2	1551.6	3.5926	3.0593	7.5197	702.44	0.56439	72.991	0.48121	0.0068914	82.634	0.012102	2486.9	2650.3	5.4028	3.4373	10.568	449.04	8.1577	21.944	0.10035
608.00	13.681	626.74	0.0015956	1536.6	1558.4	3.6034	3.0617	7.6169	695.45	0.58116	72.584	0.47915	0.0066830	84.173	0.011880	2483.5	2646.0	5.3922	3.4538	10.805	447.76	8.0828	22.037	0.10189
609.00	13.856	623.72	0.0016033	1543.1	1565.3	3.6143	3.0644	7.7191	688.40	0.59855	72.173	0.47710	0.0064755	85.750	0.011662	2480.0	2641.6	5.3815	3.4706	11.053	446.45	8.0078	22.132	0.10350
610.00	14.033	620.65	0.0016112	1549.6	1572.2	3.6252	3.0673	7.8268	681.27	0.61660	71.759	0.47503	0.0062690	87.369	0.011446	2476.4	2637.0	5.3707	3.4876	11.315	445.11	7.9329	22.229	0.10517
611.00	14.211	617.54	0.0016193	1556.2	1579.2	3.6362	3.0704	7.9405	674.06	0.63535	71.342	0.47297	0.0060635	89.031	0.011232	2472.7	2632.3	5.3597	3.5049	11.591	443.75	7.8578	22.329	0.10691
612.00	14.391	614.37	0.0016277	1562.9	1586.3	3.6473	3.0738	8.0608	666.76	0.65484	70.921	0.47090	0.0058591	90.738	0.011021	2468.9	2627.5	5.3486	3.5225	11.881	442.36	7.7827	22.432	0.10872
613.00	14.573	611.16	0.0016362	1569.6	1593.5	3.6584	3.0775	8.1882	659.38	0.67513	70.496	0.46882	0.0056559	92.492	0.010812	2465.0	2622.6	5.3373	3.5403	12.188	440.93	7.7074	22.538	0.11062
614.00	14.757	607.88	0.0016451	1576.4	1600.7	3.6697	3.0815	8.3235	651.91	0.69626	70.066	0.46674	0.0054538	94.295	0.010605	2461.0	2617.5	5.3258	3.5584	12.513	439.48	7.6320	22.647	0.11260
615.00	14.943	604.55	0.0016541	1583.2	1608.0	3.6811	3.0859	8.4674	644.33	0.71830	69.632	0.46465	0.0052528	96.150	0.010400	2456.9	2612.3	5.3142	3.5769	12.857	437.99	7.5564	22.759	0.11468
616.00	15.131	601.15	0.0016635	1590.2	1615.3	3.6925	3.0906	8.6209	636.65	0.74132	69.194	0.46255	0.0050531	98.060	0.010198	2452.7	2607.0	5.3023	3.5956	13.223	436.46	7.4806	22.874	0.11685
617.00	15.320	597.69	0.0016731	1597.2	1622.8	3.7041	3.0958	8.7850	628.86	0.76539	68.750	0.46045	0.0048547	100.03	0.0099973	2448.3	2601.4	5.2903	3.6148	13.612	434.90	7.4045	22.993	0.11912
618.00	15.512	594.16	0.0016830	1604.2	1630.3	3.7158	3.1014	8.9610	620.95	0.79058	68.300	0.45834	0.0046576	102.05	0.0097987	2443.8	2595.8	5.2780	3.6343	14.027	433.31	7.3281	23.116	0.12151
619.00	15.705	590.56	0.0016933	1611.4	1638.0	3.7277	3.1074	9.1502	612.91	0.81700	67.844	0.45623	0.0044619	104.15	0.0096018	2439.1	2589.9	5.2655	3.6542	14.470	431.67	7.2514	23.243	0.12402
620.00	15.901	586.88	0.0017039	1618.6	1645.7	3.7396	3.1140	9.3541	604.73	0.84473	67.382	0.45410	0.0042676	106.31	0.0094067	2434.3	2583.9	5.2528	3.6745	14.945	429.99	7.1743	23.374	0.12666
